subject	targetSide	orientation	stream	trial	respSP	numTargets	targetSP	targetOrient	resp	respOrient	respOrder	allRTs	SPE	orientMinus3	orientMinus2	orientMinus1	orient0	orientPlus1	orientPlus2	efficacy	latency	precision	val	warnings	valGuessing	pLRtest	nPerCond	exclude
AA	both	Canonical	Left	93.05555555555556	8.416666666666666	2	8.583333333333334	0	6.597222222222222	0.1527777777777778	1.5694444444444444	4.25859357212514	-0.16666666666666666	0.5555555555555556	0.5555555555555556	0.5277777777777778	0	0.5833333333333334	0.5138888888888888	0.709262814831187	0.158402634998133	0.357778096898705	124.85867598294	message= , call= bobyqa(par = par, fn = ufn, lower = lower, upper = upper, control = mcontrol,     ...)	204.424731650229	2.82113535715046e-34	72	FALSE
AA	both	Canonical	Right	93.05555555555556	8.26388888888889	2	8.583333333333334	0	8.097222222222221	0.6388888888888888	1.5694444444444444	3.8319604732917267	-0.3194444444444444	0.5555555555555556	0.5555555555555556	0.5277777777777778	0	0.5833333333333334	0.5138888888888888	0.640914978448759	0.253640500288083	0.397490403000302	147.21410768579	None	209.114377185789	1.17171591224519e-26	72	FALSE
AA	both	Inverted	Left	119.375	8.402777777777779	2	8.23611111111111	1	7.847222222222222	0.5	1.5277777777777777	3.780522021055554	0.16666666666666666	0.4166666666666667	0.3333333333333333	0.3472222222222222	1	0.4305555555555556	0.5416666666666666	0.834279613976016	0.475255124798777	0.56087374450129	113.691477708992	None	200.363425961354	2.41395706599183e-37	72	FALSE
AA	both	Inverted	Right	119.375	7.833333333333333	2	8.23611111111111	1	7.666666666666667	0.7083333333333334	1.5277777777777777	3.655207763527718	-0.4027777777777778	0.4166666666666667	0.3333333333333333	0.3472222222222222	1	0.4305555555555556	0.5416666666666666	0.606377100855774	0.119949971747022	0.426347134882283	150.628498090373	message= , call= bobyqa(par = par, fn = ufn, lower = lower, upper = upper, control = mcontrol,     ...)	206.401450305513	5.1006303621666104e-24	72	FALSE
AA	left	Canonical	Left	116.05555555555556	9.222222222222221	1	8.11111111111111	0	9.11111111111111	0.2777777777777778	1	2.355223732722152	1.1111111111111112	0.5555555555555556	0.5555555555555556	0.5	0	0.5	0.3888888888888889	0.862731536066191	0.200458009130116	0.431440893724539	25.1742506094963	message= , call= bobyqa(par = par, fn = ufn, lower = lower, upper = upper, control = mcontrol,     ...)	51.2100005198123	2.89181141106152e-11	18	FALSE
AA	left	Canonical	Right	116.05555555555556	NA	1	NaN	NaN	NaN	NaN	1	NaN	NA	NaN	-99	-99	-99	-99	-99	NA	NA	NA	NA	NA	NA	NA	NA	FALSE
AA	left	Inverted	Left	100.94444444444444	9	1	8.777777777777779	1	9	0.6111111111111112	1	2.1992489160558963	0.2222222222222222	0.4444444444444444	0.4444444444444444	0.5	1	0.4444444444444444	0.5	0.784331927009866	0.447695071285623	0.640630322770462	31.8576509217976	message= , call= bobyqa(par = par, fn = ufn, lower = lower, upper = upper, control = mcontrol,     ...)	49.9637525247445	6.75334838476492e-8	18	FALSE
AA	left	Inverted	Right	100.94444444444444	NA	1	NaN	NaN	NaN	NaN	1	NaN	NA	NaN	-99	-99	-99	-99	-99	NA	NA	NA	NA	NA	NA	NA	NA	FALSE
AA	right	Canonical	Left	122.77777777777777	NA	1	NaN	NaN	NaN	NaN	2	NaN	NA	NaN	-99	-99	-99	-99	-99	NA	NA	NA	NA	NA	NA	NA	NA	FALSE
AA	right	Canonical	Right	122.77777777777777	7.833333333333333	1	7.777777777777778	0	8.88888888888889	0.3888888888888889	2	2.106521543111032	0.05555555555555555	0.4444444444444444	0.6111111111111112	0.5	0	0.7222222222222222	0.4444444444444444	0.87301606017634	0.399277287592268	0.146215851532562	21.3653804655998	None	50.7175241365327	1.11177924940785e-12	18	FALSE
AA	right	Inverted	Left	112.5	NA	1	NaN	NaN	NaN	NaN	2	NaN	NA	NaN	-99	-99	-99	-99	-99	NA	NA	NA	NA	NA	NA	NA	NA	FALSE
AA	right	Inverted	Right	112.5	9.88888888888889	1	9.833333333333334	1	7.055555555555555	0.8888888888888888	2	2.252596309389042	0.05555555555555555	0.4444444444444444	0.5555555555555556	0.5	1	0.3333333333333333	0.5555555555555556	0.793902397340635	0.216693980458401	0.437467370341371	27.9997762682065	message= , call= bobyqa(par = par, fn = ufn, lower = lower, upper = upper, control = mcontrol,     ...)	50.0243771359727	1.47329613695168e-9	18	FALSE
AB	both	Canonical	Left	116.625	8.833333333333334	2	8.75	0	6.555555555555555	0.06944444444444445	1.5555555555555556	3.7090242058609673	0.08333333333333333	0.4583333333333333	0.625	0.4444444444444444	0	0.5	0.6666666666666666	0.693098310459823	0.104060034508973	0.455987709656912	135.384115453901	None	203.668110083538	2.07681731844945e-29	72	FALSE
AB	both	Canonical	Right	116.625	8.819444444444445	2	8.75	0	8.541666666666666	0.1388888888888889	1.5555555555555556	3.5975080119444303	0.06944444444444445	0.4583333333333333	0.625	0.4444444444444444	0	0.5	0.6666666666666666	0.834082020677187	0.334649612772439	0.543625839985051	112.661232854467	None	201.146184238329	3.97921347900115e-38	72	FALSE
AB	both	Inverted	Left	103.58333333333333	8.51388888888889	2	8.791666666666666	1	6.375	0.4027777777777778	1.4166666666666667	3.6799102931946033	-0.2777777777777778	0.4027777777777778	0.4027777777777778	0.5138888888888888	1	0.6388888888888888	0.4305555555555556	0.729174906561509	-0.16238679755555	0.455771653082924	129.07224554746	None	203.762457481947	3.58441816434448e-32	72	FALSE
AB	both	Inverted	Right	103.58333333333333	9.097222222222221	2	8.791666666666666	1	7.875	0.2916666666666667	1.4166666666666667	4.025149976208417	0.3055555555555556	0.4027777777777778	0.4027777777777778	0.5138888888888888	1	0.6388888888888888	0.4305555555555556	0.725882179098848	0.458607901744479	0.467426445201914	132.074726206485	None	203.707411595565	7.47017829565183e-31	72	FALSE
AB	left	Canonical	Left	111.83333333333333	8.5	1	8.833333333333334	0	7.055555555555555	0.1111111111111111	1	2.4887732891658945	-0.3333333333333333	0.5555555555555556	0.6666666666666666	0.7222222222222222	0	0.5	0.5	0.863219371269879	-0.0758030029315316	0.358981244790309	23.2375318682656	message= , call= bobyqa(par = par, fn = ufn, lower = lower, upper = upper, control = mcontrol,     ...)	52.103817817653	1.79274272545286e-12	18	FALSE
AB	left	Canonical	Right	111.83333333333333	NA	1	NaN	NaN	NaN	NaN	1	NaN	NA	NaN	-99	-99	-99	-99	-99	NA	NA	NA	NA	NA	NA	NA	NA	FALSE
AB	left	Inverted	Left	106.72222222222223	8.722222222222221	1	8.777777777777779	1	7.666666666666667	0.7222222222222222	1	2.2534674902223437	-0.05555555555555555	0.5	0.6111111111111112	0.3888888888888889	1	0.5555555555555556	0.2777777777777778	0.862742982623833	0.0657302582331519	0.472673378927275	26.13841669487	message= , call= bobyqa(par = par, fn = ufn, lower = lower, upper = upper, control = mcontrol,     ...)	51.3053106734348	6.78283752842893e-11	18	FALSE
AB	left	Inverted	Right	106.72222222222223	NA	1	NaN	NaN	NaN	NaN	1	NaN	NA	NaN	-99	-99	-99	-99	-99	NA	NA	NA	NA	NA	NA	NA	NA	FALSE
AB	right	Canonical	Left	104.05555555555556	NA	1	NaN	NaN	NaN	NaN	2	NaN	NA	NaN	-99	-99	-99	-99	-99	NA	NA	NA	NA	NA	NA	NA	NA	FALSE
AB	right	Canonical	Right	104.05555555555556	8.88888888888889	1	8.61111111111111	0	8.61111111111111	0.1111111111111111	2	2.17603487672184	0.2777777777777778	0.5555555555555556	0.6666666666666666	0.5	0	0.4444444444444444	0.4444444444444444	1	0.416796846521858	0.141152385981561	10.6351600737084	message= , call= bobyqa(par = par, fn = ufn, lower = lower, upper = upper, control = mcontrol,     ...)	49.9065941203163	6.30309433224925e-17	18	FALSE
AB	right	Inverted	Left	98.55555555555556	NA	1	NaN	NaN	NaN	NaN	2	NaN	NA	NaN	-99	-99	-99	-99	-99	NA	NA	NA	NA	NA	NA	NA	NA	FALSE
AB	right	Inverted	Right	98.55555555555556	7.388888888888889	1	7.611111111111111	1	7.777777777777778	0.7777777777777778	2	4.178648564666623	-0.2222222222222222	0.3333333333333333	0.6111111111111112	0.5555555555555556	1	0.6666666666666666	0.4444444444444444	0.790861983946961	0.352565245209966	0.487852659144587	29.2237979263746	None	49.9065941203163	5.46987861149062e-9	18	FALSE
AC	both	Canonical	Left	108.29166666666667	8.069444444444445	2	8.38888888888889	0	8.652777777777779	0.1388888888888889	1.4722222222222223	3.8089174298748834	-0.3194444444444444	0.4583333333333333	0.4861111111111111	0.5833333333333334	0	0.5416666666666666	0.5972222222222222	0.763098215417287	-0.0792422263213407	0.436568525309847	118.571760728109	None	202.130892200466	5.33037912645197e-36	72	FALSE
AC	both	Canonical	Right	108.29166666666667	7.958333333333333	2	8.38888888888889	0	9.041666666666666	0.1527777777777778	1.4722222222222223	3.8916148451665626	-0.4305555555555556	0.4583333333333333	0.4861111111111111	0.5833333333333334	0	0.5416666666666666	0.5972222222222222	0.675422623128331	0.115527816918827	0.379325771100912	130.90725857621	None	202.701531878467	6.36263236138661e-31	72	FALSE
AC	both	Inverted	Left	113.98611111111111	8.402777777777779	2	8.51388888888889	1	7.569444444444445	0.6111111111111112	1.4305555555555556	3.5751739619585754	-0.1111111111111111	0.5	0.4722222222222222	0.4722222222222222	1	0.4305555555555556	0.625	0.87969658837592	-4.17875238759465e-6	0.501500168944558	99.409440287334	None	201.06720129417	8.1047794835205e-44	72	FALSE
AC	both	Inverted	Right	113.98611111111111	8.319444444444445	2	8.51388888888889	1	8.76388888888889	0.4861111111111111	1.4305555555555556	3.990531023153027	-0.19444444444444445	0.5	0.4722222222222222	0.4722222222222222	1	0.4305555555555556	0.625	0.692905112949591	0.146679535602301	0.443053531252604	133.706382107636	None	202.72601185292	1.00048297356049e-29	72	FALSE
AC	left	Canonical	Left	110.83333333333333	9.666666666666666	1	9.11111111111111	0	8.61111111111111	0.1111111111111111	1	2.2285317865553225	0.5555555555555556	0.4444444444444444	0.3333333333333333	0.6111111111111112	0	0.5555555555555556	0.5555555555555556	0.910993370265309	0.131839687024265	0.815124521983114	29.781907777551	message= , call= bobyqa(par = par, fn = ufn, lower = lower, upper = upper, control = mcontrol,     ...)	51.1875275497785	2.69890214462298e-9	18	FALSE
AC	left	Canonical	Right	110.83333333333333	NA	1	NaN	NaN	NaN	NaN	1	NaN	NA	NaN	-99	-99	-99	-99	-99	NA	NA	NA	NA	NA	NA	NA	NA	FALSE
AC	left	Inverted	Left	110.11111111111111	8.88888888888889	1	9.722222222222221	1	9.222222222222221	0.7777777777777778	1	2.2783801807773774	-0.8333333333333334	0.4444444444444444	0.5	0.3888888888888889	1	0.4444444444444444	0.5	0.809523997899028	-0.404141460577053	0.148860204292394	24.9773126370968	None	50.1579085028829	6.69228634845148e-11	18	FALSE
AC	left	Inverted	Right	110.11111111111111	NA	1	NaN	NaN	NaN	NaN	1	NaN	NA	NaN	-99	-99	-99	-99	-99	NA	NA	NA	NA	NA	NA	NA	NA	FALSE
AC	right	Canonical	Left	88.05555555555556	NA	1	NaN	NaN	NaN	NaN	2	NaN	NA	NaN	-99	-99	-99	-99	-99	NA	NA	NA	NA	NA	NA	NA	NA	FALSE
AC	right	Canonical	Right	88.05555555555556	8	1	7.666666666666667	0	9.555555555555555	0.2222222222222222	2	2.6575596495003992	0.3333333333333333	0.6111111111111112	0.3888888888888889	0.5	0	0.7222222222222222	0.6666666666666666	0.86538696645185	0.00410373111346763	0.429452233115142	23.163310632967	message= , call= bobyqa(par = par, fn = ufn, lower = lower, upper = upper, control = mcontrol,     ...)	49.9065941203163	1.44379428519786e-11	18	FALSE
AC	right	Inverted	Left	103.88888888888889	NA	1	NaN	NaN	NaN	NaN	2	NaN	NA	NaN	-99	-99	-99	-99	-99	NA	NA	NA	NA	NA	NA	NA	NA	FALSE
AC	right	Inverted	Right	103.88888888888889	8.38888888888889	1	9.222222222222221	1	9	0.5555555555555556	2	2.1419265532784064	-0.8333333333333334	0.5	0.3333333333333333	0.2777777777777778	1	0.5	0.3333333333333333	0.729810584372013	0.280151828464461	0.651857495035755	35.1015425929748	None	50.5813920283899	8.66820070576812e-7	18	FALSE
AD	both	Canonical	Left	113.70833333333333	8.222222222222221	2	8.51388888888889	0	7.875	0.3055555555555556	1.4861111111111112	3.366819585902855	-0.2916666666666667	0.4861111111111111	0.5972222222222222	0.5972222222222222	0	0.4444444444444444	0.5416666666666666	0.582555585162567	0.34154649759746	0.46299488417732	160.382875669897	None	208.710835716771	8.1360457926128e-21	72	FALSE
AD	both	Canonical	Right	113.70833333333333	8.88888888888889	2	8.51388888888889	0	7.555555555555555	0.6805555555555556	1.4861111111111112	3.8741689925139124	0.375	0.4861111111111111	0.5972222222222222	0.5972222222222222	0	0.4444444444444444	0.5416666666666666	0.392805121886569	0.532857175507218	0.779689126646298	192.819546684493	message= , call= bobyqa(par = par, fn = ufn, lower = lower, upper = upper, control = mcontrol,     ...)	210.534086668569	9.88712144567243e-8	72	FALSE
AD	both	Inverted	Left	108.63888888888889	8.708333333333334	2	8.430555555555555	1	7.888888888888889	0.5138888888888888	1.4861111111111112	3.4864331341389314	0.2777777777777778	0.5416666666666666	0.4861111111111111	0.4166666666666667	1	0.5	0.4583333333333333	0.365079338452821	0.499999976933365	0.163280344974846	187.913532759031	None	210.335685767932	9.98518132851318e-10	72	FALSE
AD	both	Inverted	Right	108.63888888888889	8.51388888888889	2	8.430555555555555	1	7.125	0.625	1.4861111111111112	3.560745505555486	0.08333333333333333	0.5416666666666666	0.4861111111111111	0.4166666666666667	1	0.5	0.4583333333333333	0.361407797183772	0.337218122445301	0.521827691756773	192.116218538522	message= , call= bobyqa(par = par, fn = ufn, lower = lower, upper = upper, control = mcontrol,     ...)	212.056752031898	1.12918910065865e-8	72	FALSE
AD	left	Canonical	Left	122.44444444444444	8.5	1	8.38888888888889	0	8.11111111111111	0.5555555555555556	1	2.5164831801109053	0.1111111111111111	0.5	0.6111111111111112	0.5555555555555556	0	0.5	0.3333333333333333	1	0.111306236345985	1.11325329794493	28.0489941220858	message= , call= bobyqa(par = par, fn = ufn, lower = lower, upper = upper, control = mcontrol,     ...)	49.9065941203163	1.73474421416776e-9	18	FALSE
AD	left	Canonical	Right	122.44444444444444	NA	1	NaN	NaN	NaN	NaN	1	NaN	NA	NaN	-99	-99	-99	-99	-99	NA	NA	NA	NA	NA	NA	NA	NA	FALSE
AD	left	Inverted	Left	126.55555555555556	9.333333333333334	1	8.88888888888889	1	6.944444444444445	0.7777777777777778	1	2.049692098332849	0.4444444444444444	0.4444444444444444	0.4444444444444444	0.6666666666666666	1	0.2777777777777778	0.5555555555555556	0.746031875251887	0.5846998377647	0.142836519176447	28.7921344208097	None	50.2320164592125	2.60999298673701e-9	18	FALSE
AD	left	Inverted	Right	126.55555555555556	NA	1	NaN	NaN	NaN	NaN	1	NaN	NA	NaN	-99	-99	-99	-99	-99	NA	NA	NA	NA	NA	NA	NA	NA	FALSE
AD	right	Canonical	Left	86.83333333333333	NA	1	NaN	NaN	NaN	NaN	2	NaN	NA	NaN	-99	-99	-99	-99	-99	NA	NA	NA	NA	NA	NA	NA	NA	FALSE
AD	right	Canonical	Right	86.83333333333333	7.833333333333333	1	8.11111111111111	0	8.5	0.2777777777777778	2	2.056465064666352	-0.2777777777777778	0.5555555555555556	0.6666666666666666	0.5555555555555556	0	0.6111111111111112	0.5555555555555556	0.452993900774354	1.51578183560549e-8	0.298881416969915	41.303373070729	None	51.9347513426908	9.28428058224811e-5	18	FALSE
AD	right	Inverted	Left	76.77777777777777	NA	1	NaN	NaN	NaN	NaN	2	NaN	NA	NaN	-99	-99	-99	-99	-99	NA	NA	NA	NA	NA	NA	NA	NA	FALSE
AD	right	Inverted	Right	76.77777777777777	9.055555555555555	1	9.11111111111111	1	6.444444444444445	0.6111111111111112	2	2.34064306527782	-0.05555555555555555	0.5555555555555556	0.4444444444444444	0.4444444444444444	1	0.5	0.2777777777777778	0.873015995205277	0.427750045377341	0.144955331900884	21.4944714985095	message= , call= bobyqa(par = par, fn = ufn, lower = lower, upper = upper, control = mcontrol,     ...)	49.9065941203163	2.80174987625864e-12	18	FALSE
AE	both	Canonical	Left	104.40277777777777	8.694444444444445	2	8.666666666666666	0	7.958333333333333	0.1388888888888889	1.625	3.503238705486183	0.027777777777777776	0.4583333333333333	0.5	0.5694444444444444	0	0.625	0.5277777777777778	0.914529587391804	-0.0231010414395223	0.298238662279195	58.965959649737	message= , call= log(likelihood + 1e-08)	200.396484552561	5.09046435992201e-61	72	FALSE
AE	both	Canonical	Right	104.40277777777777	8.375	2	8.666666666666666	0	8.86111111111111	0.16666666666666666	1.625	3.0084246639585723	-0.2916666666666667	0.4583333333333333	0.5	0.5694444444444444	0	0.625	0.5277777777777778	0.846153915869247	-0.0217835260553054	0.325180287842994	83.5491657219848	None	200.943449126943	1.27475608946105e-50	72	FALSE
AE	both	Inverted	Left	105.40277777777777	8.13888888888889	2	8.402777777777779	1	8.73611111111111	0.7777777777777778	1.5138888888888888	3.187837639402662	-0.2638888888888889	0.4583333333333333	0.3888888888888889	0.4305555555555556	1	0.5	0.5416666666666666	0.829058072223402	0.103753699031835	0.338778462280573	91.8389180726557	message= , call= bobyqa(par = par, fn = ufn, lower = lower, upper = upper, control = mcontrol,     ...)	201.375417219777	3.18497744902915e-47	72	FALSE
AE	both	Inverted	Right	105.40277777777777	8.291666666666666	2	8.402777777777779	1	9.319444444444445	0.5416666666666666	1.5138888888888888	3.2330011695555894	-0.1111111111111111	0.4583333333333333	0.3888888888888889	0.4305555555555556	1	0.5	0.5416666666666666	0.675965417047136	0.0399314480958805	0.451071383219634	139.304893125267	None	205.218722307571	2.18367878740083e-28	72	FALSE
AE	left	Canonical	Left	98.16666666666667	8.777777777777779	1	8.777777777777779	0	9	0.05555555555555555	1	1.8890255283889321	0	0.5555555555555556	0.6111111111111112	0.6111111111111112	0	0.6111111111111112	0.7222222222222222	1	-4.11590080124294e-9	0.313821312569212	7.66530314453696	message= , call= bobyqa(par = par, fn = ufn, lower = lower, upper = upper, control = mcontrol,     ...)	49.9065941203163	3.35132388975069e-18	18	FALSE
AE	left	Canonical	Right	98.16666666666667	NA	1	NaN	NaN	NaN	NaN	1	NaN	NA	NaN	-99	-99	-99	-99	-99	NA	NA	NA	NA	NA	NA	NA	NA	FALSE
AE	left	Inverted	Left	112.27777777777777	8.555555555555555	1	8.38888888888889	1	9.11111111111111	0.9444444444444444	1	1.953253098666917	0.16666666666666666	0.5	0.7222222222222222	0.4444444444444444	1	0.5	0.3888888888888889	1	0.174912285032393	0.420676146484953	13.1533391402109	message= , call= bobyqa(par = par, fn = ufn, lower = lower, upper = upper, control = mcontrol,     ...)	49.9065941203163	7.57110519684171e-16	18	FALSE
AE	left	Inverted	Right	112.27777777777777	NA	1	NaN	NaN	NaN	NaN	1	NaN	NA	NaN	-99	-99	-99	-99	-99	NA	NA	NA	NA	NA	NA	NA	NA	FALSE
AE	right	Canonical	Left	109.27777777777777	NA	1	NaN	NaN	NaN	NaN	2	NaN	NA	NaN	-99	-99	-99	-99	-99	NA	NA	NA	NA	NA	NA	NA	NA	FALSE
AE	right	Canonical	Right	109.27777777777777	8.833333333333334	1	8.833333333333334	0	7.833333333333333	0.05555555555555555	2	1.6077851383888628	0	0.5	0.6111111111111112	0.6111111111111112	0	0.5555555555555556	0.4444444444444444	1	2.34252650019102e-8	0.313821289461269	7.66530314453704	message= , call= bobyqa(par = par, fn = ufn, lower = lower, upper = upper, control = mcontrol,     ...)	49.9065941203163	3.35132388975096e-18	18	FALSE
AE	right	Inverted	Left	143.05555555555554	NA	1	NaN	NaN	NaN	NaN	2	NaN	NA	NaN	-99	-99	-99	-99	-99	NA	NA	NA	NA	NA	NA	NA	NA	FALSE
AE	right	Inverted	Right	143.05555555555554	8.722222222222221	1	8.277777777777779	1	8.5	0.8888888888888888	2	1.587303554778676	0.4444444444444444	0.4444444444444444	0.6111111111111112	0.3333333333333333	1	0.5	0.6111111111111112	0.794580306056159	0.150302317368466	0.402111946868307	27.0845898384392	None	50.2320164592125	4.90909216320985e-10	18	FALSE
AF	both	Canonical	Left	112.125	8.73611111111111	2	8.319444444444445	0	6.972222222222222	0.2222222222222222	1.4722222222222223	3.92179723704218	0.4166666666666667	0.5277777777777778	0.5833333333333334	0.5972222222222222	0	0.5	0.5972222222222222	0.86691273485037	0.334991099316959	0.699401679286427	116.739375203945	None	200.641864202245	3.78895838461198e-36	72	FALSE
AF	both	Canonical	Right	112.125	8.833333333333334	2	8.319444444444445	0	8.833333333333334	0.4444444444444444	1.4722222222222223	3.9746118474167815	0.5138888888888888	0.5277777777777778	0.5833333333333334	0.5972222222222222	0	0.5	0.5972222222222222	0.232974636399539	0.0673192738015806	0.924781067858657	206.950098784654	message= , call= bobyqa(par = par, fn = ufn, lower = lower, upper = upper, control = mcontrol,     ...)	212.88425182713	0.00784817653870711	72	FALSE
AF	both	Inverted	Left	107.15277777777777	8.180555555555555	2	8.291666666666666	1	8.152777777777779	0.5277777777777778	1.4861111111111112	3.9860581128470787	-0.1111111111111111	0.4861111111111111	0.4722222222222222	0.4166666666666667	1	0.4722222222222222	0.4305555555555556	0.781319382203181	0.364495696048103	0.689277656193722	134.430044889065	None	202.172998841404	3.55358524324907e-29	72	FALSE
AF	both	Inverted	Right	107.15277777777777	9.444444444444445	2	8.291666666666666	1	9.097222222222221	0.5555555555555556	1.4861111111111112	4.164277418458166	1.1527777777777777	0.4861111111111111	0.4722222222222222	0.4166666666666667	1	0.4722222222222222	0.4305555555555556	0.158730167109122	0.55406583516022	0.161310873961971	213.356115831317	message= , call= bobyqa(par = par, fn = ufn, lower = lower, upper = upper, control = mcontrol,     ...)	218.630357567904	0.0144355869611133	72	FALSE
AF	left	Canonical	Left	102.55555555555556	8.11111111111111	1	8.5	0	6.388888888888889	0.1111111111111111	1	2.764633994167525	-0.3888888888888889	0.3888888888888889	0.4444444444444444	0.7222222222222222	0	0.3888888888888889	0.3333333333333333	0.790145076200642	0.354112389005715	0.484768131768944	31.3451389494936	None	52.023775128441	5.49215332458299e-9	18	FALSE
AF	left	Canonical	Right	102.55555555555556	NA	1	NaN	NaN	NaN	NaN	1	NaN	NA	NaN	-99	-99	-99	-99	-99	NA	NA	NA	NA	NA	NA	NA	NA	FALSE
AF	left	Inverted	Left	104	8.5	1	8.333333333333334	1	5.944444444444445	0.6666666666666666	1	2.291788207445077	0.16666666666666666	0.6111111111111112	0.6111111111111112	0.3888888888888889	1	0.5	0.3333333333333333	0.929896558368742	0.358212554917367	0.495671991758708	21.4547398954472	message= , call= bobyqa(par = par, fn = ufn, lower = lower, upper = upper, control = mcontrol,     ...)	49.9065941203163	2.69443334315806e-12	18	FALSE
AF	left	Inverted	Right	104	NA	1	NaN	NaN	NaN	NaN	1	NaN	NA	NaN	-99	-99	-99	-99	-99	NA	NA	NA	NA	NA	NA	NA	NA	FALSE
AF	right	Canonical	Left	103	NA	1	NaN	NaN	NaN	NaN	2	NaN	NA	NaN	-99	-99	-99	-99	-99	NA	NA	NA	NA	NA	NA	NA	NA	FALSE
AF	right	Canonical	Right	103	8.333333333333334	1	7.833333333333333	0	7.388888888888889	0.1111111111111111	2	2.248487923278137	0.5	0.3333333333333333	0.5555555555555556	0.4444444444444444	0	0.3888888888888889	0.5	0.682539337379887	0.419879648462282	0.149908639217102	32.6655167989528	message= , call= bobyqa(par = par, fn = ufn, lower = lower, upper = upper, control = mcontrol,     ...)	50.7175241365327	7.11861546179891e-8	18	FALSE
AF	right	Inverted	Left	115.33333333333333	NA	1	NaN	NaN	NaN	NaN	2	NaN	NA	NaN	-99	-99	-99	-99	-99	NA	NA	NA	NA	NA	NA	NA	NA	FALSE
AF	right	Inverted	Right	115.33333333333333	8.333333333333334	1	8.444444444444445	1	6.777777777777778	0.6666666666666666	2	2.8820108998321907	-0.1111111111111111	0.5	0.6111111111111112	0.2777777777777778	1	0.4444444444444444	0.5	0.936508179871623	0.464114647648247	0.159540220114611	18.9629817807167	message= , call= bobyqa(par = par, fn = ufn, lower = lower, upper = upper, control = mcontrol,     ...)	50.8510554777286	9.16454794168239e-14	18	FALSE
AG	both	Canonical	Left	110.43055555555556	9.027777777777779	2	8.444444444444445	0	7.777777777777778	0.19444444444444445	1.4166666666666667	3.5973950943610666	0.5833333333333334	0.5277777777777778	0.5972222222222222	0.5833333333333334	0	0.5138888888888888	0.5	0.863155720129511	0.273557236935466	0.308285053960221	88.2904521506497	None	202.549024354319	2.89347814844328e-49	72	FALSE
AG	both	Canonical	Right	110.43055555555556	8.319444444444445	2	8.444444444444445	0	7.555555555555555	0.5833333333333334	1.4166666666666667	4.035221616291387	-0.125	0.5277777777777778	0.5972222222222222	0.5833333333333334	0	0.5138888888888888	0.5	0.744812911924574	0.214335840752727	0.441364636236714	129.293891350374	None	207.526887823498	1.06106230598891e-33	72	FALSE
AG	both	Inverted	Left	113.88888888888889	8.472222222222221	2	8.541666666666666	1	7.75	0.6527777777777778	1.4166666666666667	3.6206845117773505	-0.06944444444444445	0.4861111111111111	0.5694444444444444	0.3472222222222222	1	0.4583333333333333	0.4861111111111111	0.778657945124965	0.188504214317996	0.426734557072351	118.245766693206	message= , call= bobyqa(par = par, fn = ufn, lower = lower, upper = upper, control = mcontrol,     ...)	204.696878562378	3.00669841090246e-37	72	FALSE
AG	both	Inverted	Right	113.88888888888889	8.583333333333334	2	8.541666666666666	1	8.069444444444445	0.7083333333333334	1.4166666666666667	4.029534203693907	0.041666666666666664	0.4861111111111111	0.5694444444444444	0.3472222222222222	1	0.4583333333333333	0.4861111111111111	0.831251494197214	0.316453924606273	0.402581399604204	103.299624302703	None	201.260754486947	3.20777289763851e-42	72	FALSE
AG	left	Canonical	Left	113.16666666666667	8.333333333333334	1	8.61111111111111	0	6.722222222222222	0.05555555555555555	1	2.423515445666352	-0.2777777777777778	0.6666666666666666	0.6111111111111112	0.4444444444444444	0	0.5	0.3888888888888889	0.873015888639185	0.33388927515566	0.140281401943055	17.5854121063103	None	49.9065941203163	5.98214202813404e-14	18	FALSE
AG	left	Canonical	Right	113.16666666666667	NA	1	NaN	NaN	NaN	NaN	1	NaN	NA	NaN	-99	-99	-99	-99	-99	NA	NA	NA	NA	NA	NA	NA	NA	FALSE
AG	left	Inverted	Left	97.38888888888889	8.666666666666666	1	8.38888888888889	1	8.777777777777779	0.9444444444444444	1	2.671586195112064	0.2777777777777778	0.2222222222222222	0.1111111111111111	0.5	1	0.4444444444444444	0.6111111111111112	0.746031923763879	0.395762673156274	0.0645566443925421	24.0988637822242	None	50.3120591484245	2.4295613097402e-11	18	FALSE
AG	left	Inverted	Right	97.38888888888889	NA	1	NaN	NaN	NaN	NaN	1	NaN	NA	NaN	-99	-99	-99	-99	-99	NA	NA	NA	NA	NA	NA	NA	NA	FALSE
AG	right	Canonical	Left	89.22222222222223	NA	1	NaN	NaN	NaN	NaN	2	NaN	NA	NaN	-99	-99	-99	-99	-99	NA	NA	NA	NA	NA	NA	NA	NA	FALSE
AG	right	Canonical	Right	89.22222222222223	8.555555555555555	1	8.5	0	7.444444444444445	0.1111111111111111	2	2.277930932165974	0.05555555555555555	0.6666666666666666	0.6666666666666666	0.4444444444444444	0	0.6111111111111112	0.7222222222222222	1	0.295192126627563	0.128549737120018	3.86206443873373	None	49.9065941203163	7.79471831274091e-20	18	FALSE
AG	right	Inverted	Left	104.94444444444444	NA	1	NaN	NaN	NaN	NaN	2	NaN	NA	NaN	-99	-99	-99	-99	-99	NA	NA	NA	NA	NA	NA	NA	NA	FALSE
AG	right	Inverted	Right	104.94444444444444	7.777777777777778	1	7.611111111111111	1	8.444444444444445	0.8333333333333334	2	2.0834875698892574	0.16666666666666666	0.4444444444444444	0.5555555555555556	0.4444444444444444	1	0.3888888888888889	0.7222222222222222	1	0.174912283041484	0.420676131006108	13.1533391402109	message= , call= bobyqa(par = par, fn = ufn, lower = lower, upper = upper, control = mcontrol,     ...)	49.9065941203163	7.57110519684171e-16	18	FALSE
AH	both	Canonical	Left	104.31944444444444	8.375	2	8.63888888888889	0	7.416666666666667	0.2916666666666667	1.4583333333333333	4.203569374069856	-0.2638888888888889	0.5277777777777778	0.5277777777777778	0.5416666666666666	0	0.4861111111111111	0.5416666666666666	0.812837613387962	0.038990735520791	0.399841032561664	105.100764836049	None	203.336079693687	2.44189820672336e-42	72	FALSE
AH	both	Canonical	Right	104.31944444444444	8.458333333333334	2	8.63888888888889	0	8.444444444444445	0.8055555555555556	1.4583333333333333	4.26732458197249	-0.18055555555555555	0.5277777777777778	0.5277777777777778	0.5416666666666666	0	0.4861111111111111	0.5416666666666666	0.0952381135935213	0.34306569912221	0.142519123518661	213.861125516146	message= , call= bobyqa(par = par, fn = ufn, lower = lower, upper = upper, control = mcontrol,     ...)	216.668248523633	0.131962897812056	72	FALSE
AH	both	Inverted	Left	108.20833333333333	8.680555555555555	2	8.652777777777779	1	8.277777777777779	0.5138888888888888	1.4305555555555556	4.122712135430953	0.027777777777777776	0.5	0.4861111111111111	0.4861111111111111	1	0.4166666666666667	0.4166666666666667	0.811322474919315	0.234659958527189	0.405610488485215	109.961763070175	message= , call= bobyqa(par = par, fn = ufn, lower = lower, upper = upper, control = mcontrol,     ...)	204.412448454724	1.05421019668064e-40	72	FALSE
AH	both	Inverted	Right	108.20833333333333	7.652777777777778	2	8.652777777777779	1	8.625	0.7777777777777778	1.4305555555555556	4.4481285441534055	-1	0.5	0.4861111111111111	0.4861111111111111	1	0.4166666666666667	0.4166666666666667	0.126984191528575	0.332058388442703	0.141226603335843	210.225593189319	None	215.053262697483	0.0217349623215687	72	FALSE
AH	left	Canonical	Left	115.44444444444444	9.5	1	8.722222222222221	0	8.11111111111111	0.2777777777777778	1	2.5705887384416806	0.7777777777777778	0.7777777777777778	0.5	0.3333333333333333	0	0.4444444444444444	0.7777777777777778	0.863219011166048	-0.0758030929747087	0.358981204388503	22.3437182192935	message= , call= bobyqa(par = par, fn = ufn, lower = lower, upper = upper, control = mcontrol,     ...)	51.2100005198123	1.79274915737542e-12	18	FALSE
AH	left	Canonical	Right	115.44444444444444	NA	1	NaN	NaN	NaN	NaN	1	NaN	NA	NaN	-99	-99	-99	-99	-99	NA	NA	NA	NA	NA	NA	NA	NA	FALSE
AH	left	Inverted	Left	85.72222222222223	9.11111111111111	1	8.277777777777779	1	8.333333333333334	0.7777777777777778	1	2.873519234779249	0.8333333333333334	0.4444444444444444	0.3888888888888889	0.3888888888888889	1	0.7777777777777778	0.1111111111111111	0.923845406924965	0.460389244625366	0.617445936264238	24.6098892682856	message= , call= log(likelihood + 1e-08)	50.2320164592125	4.33964282851378e-11	18	FALSE
AH	left	Inverted	Right	85.72222222222223	NA	1	NaN	NaN	NaN	NaN	1	NaN	NA	NaN	-99	-99	-99	-99	-99	NA	NA	NA	NA	NA	NA	NA	NA	FALSE
AH	right	Canonical	Left	139.16666666666666	NA	1	NaN	NaN	NaN	NaN	2	NaN	NA	NaN	-99	-99	-99	-99	-99	NA	NA	NA	NA	NA	NA	NA	NA	FALSE
AH	right	Canonical	Right	139.16666666666666	7.722222222222222	1	8	0	7.666666666666667	0.8888888888888888	2	2.434012136944754	-0.2777777777777778	0.5555555555555556	0.5555555555555556	0.5555555555555556	0	0.7222222222222222	0.4444444444444444	0.547295051921246	0.366974859153513	0.568537298511717	42.0180887940272	None	51.9620900841096	1.79059740019734e-4	18	FALSE
AH	right	Inverted	Left	111.55555555555556	NA	1	NaN	NaN	NaN	NaN	2	NaN	NA	NaN	-99	-99	-99	-99	-99	NA	NA	NA	NA	NA	NA	NA	NA	FALSE
AH	right	Inverted	Right	111.55555555555556	8.833333333333334	1	8.555555555555555	1	7.111111111111111	0.8888888888888888	2	3.1028726068883166	0.2777777777777778	0.5	0.3333333333333333	0.3888888888888889	1	0.3888888888888889	0.6666666666666666	0.655399685357887	0.739476407503591	0.44970192653979	37.3655266123777	message= , call= bobyqa(par = par, fn = ufn, lower = lower, upper = upper, control = mcontrol,     ...)	52.6064467427861	1.09274253716218e-6	18	FALSE
AI	both	Canonical	Left	106.63888888888889	9.25	2	8.458333333333334	0	7.472222222222222	0.16666666666666666	1.4444444444444444	4.433788816235796	0.7916666666666666	0.625	0.4861111111111111	0.3888888888888889	0	0.5416666666666666	0.5138888888888888	0.642560798333617	0.205486131131359	0.434152432514703	147.480373826837	None	208.055763945772	4.36100798490465e-26	72	FALSE
AI	both	Canonical	Right	106.63888888888889	8.805555555555555	2	8.458333333333334	0	9.027777777777779	0.3888888888888889	1.4444444444444444	4.541697480513701	0.3472222222222222	0.625	0.4861111111111111	0.3888888888888889	0	0.5416666666666666	0.5138888888888888	0.854094073884648	0.261525061895568	0.544945877753183	108.947590598116	message= , call= bobyqa(par = par, fn = ufn, lower = lower, upper = upper, control = mcontrol,     ...)	200.974374180442	1.17497481355865e-39	72	FALSE
AI	both	Inverted	Left	115.97222222222223	9.208333333333334	2	8.694444444444445	1	8.652777777777779	0.2638888888888889	1.5	4.250718546860804	0.5138888888888888	0.4166666666666667	0.4722222222222222	0.5277777777777778	1	0.5	0.5416666666666666	0.511667862443349	0.41013254153607	0.629852161472448	179.816424906511	message= , call= bobyqa(par = par, fn = ufn, lower = lower, upper = upper, control = mcontrol,     ...)	212.649307187242	3.61358958532688e-14	72	FALSE
AI	both	Inverted	Right	115.97222222222223	8.555555555555555	2	8.694444444444445	1	7.055555555555555	0.7083333333333334	1.5	4.09815200029152	-0.1388888888888889	0.4166666666666667	0.4722222222222222	0.5277777777777778	1	0.5	0.5416666666666666	0.766143473313554	0.18688887044083	0.517635847098179	127.919464473793	None	204.780203232755	4.14868783075797e-33	72	FALSE
AI	left	Canonical	Left	97.05555555555556	10.555555555555555	1	9.555555555555555	0	7.888888888888889	0.1111111111111111	1	2.6776986875568887	1	0.3888888888888889	0.7222222222222222	0.5555555555555556	0	0.4444444444444444	0.6666666666666666	0.850013768473535	0.429895057585701	0.611895109277909	29.0584097127121	None	50.6503848861626	2.24933588330725e-9	18	FALSE
AI	left	Canonical	Right	97.05555555555556	NA	1	NaN	NaN	NaN	NaN	1	NaN	NA	NaN	-99	-99	-99	-99	-99	NA	NA	NA	NA	NA	NA	NA	NA	FALSE
AI	left	Inverted	Left	116.94444444444444	9.11111111111111	1	9.11111111111111	1	7.222222222222222	0.3888888888888889	1	2.9940191256674655	0	0.2777777777777778	0.5	0.2222222222222222	1	0.5	0.4444444444444444	0.80906321163694	0.828562888383964	0.628472585869477	32.7020269772381	None	52.1038174176535	1.91017811271211e-8	18	FALSE
AI	left	Inverted	Right	116.94444444444444	NA	1	NaN	NaN	NaN	NaN	1	NaN	NA	NaN	-99	-99	-99	-99	-99	NA	NA	NA	NA	NA	NA	NA	NA	FALSE
AI	right	Canonical	Left	83.94444444444444	NA	1	NaN	NaN	NaN	NaN	2	NaN	NA	NaN	-99	-99	-99	-99	-99	NA	NA	NA	NA	NA	NA	NA	NA	FALSE
AI	right	Canonical	Right	83.94444444444444	8.444444444444445	1	8.722222222222221	0	7.111111111111111	0.3333333333333333	2	3.1212661616114525	-0.2777777777777778	0.5	0.5	0.6666666666666666	0	0.5555555555555556	0.4444444444444444	0.873016032002628	0.396915137411266	0.14964483907015	20.6116101741539	None	49.9637525247445	1.11178069314377e-12	18	FALSE
AI	right	Inverted	Left	113.61111111111111	NA	1	NaN	NaN	NaN	NaN	2	NaN	NA	NaN	-99	-99	-99	-99	-99	NA	NA	NA	NA	NA	NA	NA	NA	FALSE
AI	right	Inverted	Right	113.61111111111111	8.722222222222221	1	8.333333333333334	1	8.166666666666666	0.8333333333333334	2	2.7649612158331567	0.3888888888888889	0.4444444444444444	0.5	0.5555555555555556	1	0.3888888888888889	0.5	0.921685940451567	0.165300415193391	0.711966799990865	26.2924417774883	message= , call= log(likelihood + 1e-08)	49.9065941203163	3.10788618229851e-10	18	FALSE
AJ	both	Canonical	Left	94.13888888888889	8.36111111111111	2	8.597222222222221	0	8.01388888888889	0.3333333333333333	1.5972222222222223	3.6103199625839704	-0.2361111111111111	0.4583333333333333	0.4861111111111111	0.6388888888888888	0	0.5833333333333334	0.5416666666666666	0.829308451075423	0.0369450460321098	0.39645208077576	99.4854361694046	message= , call= bobyqa(par = par, fn = ufn, lower = lower, upper = upper, control = mcontrol,     ...)	201.774862481608	4.32259500262651e-44	72	FALSE
AJ	both	Canonical	Right	94.13888888888889	8.51388888888889	2	8.597222222222221	0	8.26388888888889	0.4305555555555556	1.5972222222222223	3.365762949180761	-0.08333333333333333	0.4583333333333333	0.4861111111111111	0.6388888888888888	0	0.5833333333333334	0.5416666666666666	0.647142208394918	-0.0344399995599031	0.516576825511921	146.164731829203	None	203.069034321412	1.66176643695775e-24	72	FALSE
AJ	both	Inverted	Left	117.5	7.930555555555555	2	8.458333333333334	1	8.208333333333334	0.7777777777777778	1.4861111111111112	3.4173991010966347	-0.5277777777777778	0.5694444444444444	0.4861111111111111	0.5138888888888888	1	0.4027777777777778	0.4583333333333333	0.709331269927963	-2.89246883937382e-4	0.409502253690781	130.69873050772	message= , call= bobyqa(par = par, fn = ufn, lower = lower, upper = upper, control = mcontrol,     ...)	206.456853844765	1.24071836462334e-32	72	FALSE
AJ	both	Inverted	Right	117.5	8.88888888888889	2	8.458333333333334	1	8.125	0.7083333333333334	1.4861111111111112	3.489348299638449	0.4305555555555556	0.5694444444444444	0.4861111111111111	0.5138888888888888	1	0.4027777777777778	0.4583333333333333	0.452967374562654	0.0317552695011648	0.430614237891023	178.908522929343	None	212.794568372597	1.28001470072479e-14	72	FALSE
AJ	left	Canonical	Left	90.11111111111111	9.11111111111111	1	8.833333333333334	0	8.333333333333334	0.3333333333333333	1	2.2424341380558164	0.2777777777777778	0.6666666666666666	0.5555555555555556	0.6666666666666666	0	0.4444444444444444	0.6111111111111112	0.726796207720326	-0.0890820675310973	0.364879921977478	29.9211180890325	message= , call= bobyqa(par = par, fn = ufn, lower = lower, upper = upper, control = mcontrol,     ...)	50.8510554777286	4.29644364479156e-9	18	FALSE
AJ	left	Canonical	Right	90.11111111111111	NA	1	NaN	NaN	NaN	NaN	1	NaN	NA	NaN	-99	-99	-99	-99	-99	NA	NA	NA	NA	NA	NA	NA	NA	FALSE
AJ	left	Inverted	Left	112.38888888888889	8.055555555555555	1	7.944444444444445	1	7.777777777777778	0.7222222222222222	1	2.1919408191109446	0.1111111111111111	0.6111111111111112	0.6111111111111112	0.3888888888888889	1	0.3333333333333333	0.6666666666666666	0.746031945360215	-0.378730856003107	0.145398703341973	28.6459879869094	message= , call= bobyqa(par = par, fn = ufn, lower = lower, upper = upper, control = mcontrol,     ...)	51.1875275497785	8.8840706627227e-10	18	FALSE
AJ	left	Inverted	Right	112.38888888888889	NA	1	NaN	NaN	NaN	NaN	1	NaN	NA	NaN	-99	-99	-99	-99	-99	NA	NA	NA	NA	NA	NA	NA	NA	FALSE
AJ	right	Canonical	Left	130.44444444444446	NA	1	NaN	NaN	NaN	NaN	2	NaN	NA	NaN	-99	-99	-99	-99	-99	NA	NA	NA	NA	NA	NA	NA	NA	FALSE
AJ	right	Canonical	Right	130.44444444444446	8.277777777777779	1	7.666666666666667	0	8.333333333333334	0.2222222222222222	2	2.295734859220829	0.6111111111111112	0.6666666666666666	0.6666666666666666	0.7777777777777778	0	0.4444444444444444	0.2777777777777778	0.87301614150986	0.385923339503979	0.0963382481696664	17.7677333893098	message= , call= bobyqa(par = par, fn = ufn, lower = lower, upper = upper, control = mcontrol,     ...)	50.0889156451103	5.98214060339962e-14	18	FALSE
AJ	right	Inverted	Left	122.5	NA	1	NaN	NaN	NaN	NaN	2	NaN	NA	NaN	-99	-99	-99	-99	-99	NA	NA	NA	NA	NA	NA	NA	NA	FALSE
AJ	right	Inverted	Right	122.5	8.833333333333334	1	8.61111111111111	1	9.722222222222221	0.6666666666666666	2	2.1325581836103487	0.2222222222222222	0.5	0.6111111111111112	0.4444444444444444	1	0.2777777777777778	0.4444444444444444	0.861233103644027	0.193097002283482	0.552004752299067	27.0847941442416	None	50.2150669073111	4.99225285592118e-10	18	FALSE
AK	both	Canonical	Left	117.73611111111111	7.791666666666667	2	8.11111111111111	0	7.361111111111111	0.5416666666666666	1.5694444444444444	3.6071632420275312	-0.3194444444444444	0.4305555555555556	0.6388888888888888	0.625	0	0.5972222222222222	0.5138888888888888	0.811719287951765	0.290907498862364	0.545300243772139	120.289979784211	message= , call= bobyqa(par = par, fn = ufn, lower = lower, upper = upper, control = mcontrol,     ...)	203.872394240034	5.20842260074506e-36	72	FALSE
AK	both	Canonical	Right	117.73611111111111	8.166666666666666	2	8.11111111111111	0	7.361111111111111	0.1527777777777778	1.5694444444444444	3.3873538234163587	0.05555555555555555	0.4305555555555556	0.6388888888888888	0.625	0	0.5972222222222222	0.5138888888888888	0.389778588798814	0.479900143537547	0.521725535769001	185.255658777125	message= , call= bobyqa(par = par, fn = ufn, lower = lower, upper = upper, control = mcontrol,     ...)	207.846201364709	8.46802593579785e-10	72	FALSE
AK	both	Inverted	Left	113.625	8.666666666666666	2	8.13888888888889	1	7.777777777777778	0.7083333333333334	1.5833333333333333	4.585928707319606	0.5277777777777778	0.4722222222222222	0.4305555555555556	0.375	1	0.4861111111111111	0.3888888888888889	0.791261402657034	0.580557411425752	0.603445370164047	127.946039381717	None	203.739419598938	1.19801172477039e-32	72	FALSE
AK	both	Inverted	Right	113.625	8.819444444444445	2	8.13888888888889	1	7.680555555555555	0.125	1.5833333333333333	4.181022849985816	0.6805555555555556	0.4722222222222222	0.4305555555555556	0.375	1	0.4861111111111111	0.3888888888888889	0.307172544395987	0.626869552871524	1.20509649565542	205.749041772205	None	213.484095531246	0.00145595138628636	72	FALSE
AK	left	Canonical	Left	92.94444444444444	8.777777777777779	1	8.333333333333334	0	7.833333333333333	0.2222222222222222	1	2.2085424961668547	0.4444444444444444	0.5	0.5	0.6111111111111112	0	0.4444444444444444	0.5555555555555556	0.930643134196173	0.699754767105679	0.477989058569689	20.9462367118939	message= , call= bobyqa(par = par, fn = ufn, lower = lower, upper = upper, control = mcontrol,     ...)	49.9065941203163	1.63435540443918e-12	18	FALSE
AK	left	Canonical	Right	92.94444444444444	NA	1	NaN	NaN	NaN	NaN	1	NaN	NA	NaN	-99	-99	-99	-99	-99	NA	NA	NA	NA	NA	NA	NA	NA	FALSE
AK	left	Inverted	Left	122.22222222222223	8.055555555555555	1	8	1	8.11111111111111	0.5555555555555556	1	1.7995479155001197	0.05555555555555555	0.5	0.5555555555555556	0.5	1	0.4444444444444444	0.2777777777777778	0.900685006300883	-0.183094344994881	1.07124355031295	32.9492031479818	None	50.0889156451103	1.72953991971948e-7	18	FALSE
AK	left	Inverted	Right	122.22222222222223	NA	1	NaN	NaN	NaN	NaN	1	NaN	NA	NaN	-99	-99	-99	-99	-99	NA	NA	NA	NA	NA	NA	NA	NA	FALSE
AK	right	Canonical	Left	89.83333333333333	NA	1	NaN	NaN	NaN	NaN	2	NaN	NA	NaN	-99	-99	-99	-99	-99	NA	NA	NA	NA	NA	NA	NA	NA	FALSE
AK	right	Canonical	Right	89.83333333333333	10.055555555555555	1	8.777777777777779	0	8.277777777777779	0.2777777777777778	2	2.161956048277918	1.2777777777777777	0.7222222222222222	0.5555555555555556	0.5	0	0.3888888888888889	0.5555555555555556	0.784311435200735	0.552307888675825	0.640540274770507	32.3031759520905	message= , call= bobyqa(par = par, fn = ufn, lower = lower, upper = upper, control = mcontrol,     ...)	50.4092228854496	6.75370792281902e-8	18	FALSE
AK	right	Inverted	Left	71.55555555555556	NA	1	NaN	NaN	NaN	NaN	2	NaN	NA	NaN	-99	-99	-99	-99	-99	NA	NA	NA	NA	NA	NA	NA	NA	FALSE
AK	right	Inverted	Right	71.55555555555556	9.444444444444445	1	8.777777777777779	1	5.5	0.2777777777777778	2	2.151731184777115	0.6666666666666666	0.3333333333333333	0.2222222222222222	0.4444444444444444	1	0.3888888888888889	0.6111111111111112	0.365079430203313	0.500000077301667	0.1664578043886	48.4057271050868	None	54.011265966583	0.0106375752225201	18	FALSE
AL	both	Canonical	Left	110.76388888888889	9.402777777777779	2	8.98611111111111	0	7.541666666666667	0.16666666666666666	1.3888888888888888	4.869765101040987	0.4166666666666667	0.625	0.4722222222222222	0.5694444444444444	0	0.4027777777777778	0.6111111111111112	0.660030586330735	0.668904389587681	0.578296522073334	152.224922494763	None	206.906882569514	1.50390909739294e-23	72	FALSE
AL	both	Canonical	Right	110.76388888888889	8.847222222222221	2	8.98611111111111	0	9.125	0.3611111111111111	1.3888888888888888	5.906098730443571	-0.1388888888888889	0.625	0.4722222222222222	0.5694444444444444	0	0.4027777777777778	0.6111111111111112	0.298974392388499	0.455389679476503	0.482435712463256	198.433753519092	None	213.02139405533	2.05732155445956e-6	72	FALSE
AL	both	Inverted	Left	103.83333333333333	8.916666666666666	2	8.305555555555555	1	7.680555555555555	0.6111111111111112	1.4305555555555556	5.075985307888408	0.6111111111111112	0.4166666666666667	0.4861111111111111	0.3888888888888889	1	0.4861111111111111	0.5	0.406905237414604	0.538741461000285	0.43378486302625	184.445552276611	message= , call= bobyqa(par = par, fn = ufn, lower = lower, upper = upper, control = mcontrol,     ...)	210.516357646861	2.79400471840344e-11	72	FALSE
AL	both	Inverted	Right	103.83333333333333	8.097222222222221	2	8.305555555555555	1	9.652777777777779	0.3888888888888889	1.4305555555555556	5.59384011931949	-0.20833333333333334	0.4166666666666667	0.4861111111111111	0.3888888888888889	1	0.4861111111111111	0.5	0.3233401950056	-0.126125244392519	1.05387505868424	200.674249144253	None	210.165670033396	2.75641362493724e-4	72	FALSE
AL	left	Canonical	Left	129.27777777777777	9.61111111111111	1	9.38888888888889	0	8.222222222222221	0.1111111111111111	1	3.0555518378884394	0.2222222222222222	0.6111111111111112	0.5	0.3333333333333333	0	0.5	0.6111111111111112	0.74603207414509	0.377871863749897	0.146428665720468	29.1046968885624	message= , call= bobyqa(par = par, fn = ufn, lower = lower, upper = upper, control = mcontrol,     ...)	51.6462369884056	8.88406599361622e-10	18	FALSE
AL	left	Canonical	Right	129.27777777777777	NA	1	NaN	NaN	NaN	NaN	1	NaN	NA	NaN	-99	-99	-99	-99	-99	NA	NA	NA	NA	NA	NA	NA	NA	FALSE
AL	left	Inverted	Left	97.88888888888889	9.444444444444445	1	8.555555555555555	1	6.166666666666667	0.7222222222222222	1	4.022151810944504	0.8888888888888888	0.6111111111111112	0.6666666666666666	0.2777777777777778	1	0.5555555555555556	0.3333333333333333	0.77511944384864	0.513572490312009	0.468548205036663	30.4445405466544	None	50.7175241365327	8.16224026604396e-9	18	FALSE
AL	left	Inverted	Right	97.88888888888889	NA	1	NaN	NaN	NaN	NaN	1	NaN	NA	NaN	-99	-99	-99	-99	-99	NA	NA	NA	NA	NA	NA	NA	NA	FALSE
AL	right	Canonical	Left	117.05555555555556	NA	1	NaN	NaN	NaN	NaN	2	NaN	NA	NaN	-99	-99	-99	-99	-99	NA	NA	NA	NA	NA	NA	NA	NA	FALSE
AL	right	Canonical	Right	117.05555555555556	9.666666666666666	1	8.166666666666666	0	9.11111111111111	0.6111111111111112	2	5.09188965861055	1.5	0.4444444444444444	0.5555555555555556	0.5	0	0.5	0.6666666666666666	0.673193770032436	1.45986821739905	1.43325869869136	44.9086099177997	message= , call= bobyqa(par = par, fn = ufn, lower = lower, upper = upper, control = mcontrol,     ...)	52.0366788815683	0.00257644692831906	18	FALSE
AL	right	Inverted	Left	99.38888888888889	NA	1	NaN	NaN	NaN	NaN	2	NaN	NA	NaN	-99	-99	-99	-99	-99	NA	NA	NA	NA	NA	NA	NA	NA	FALSE
AL	right	Inverted	Right	99.38888888888889	9.944444444444445	1	8.666666666666666	1	8.944444444444445	0.8888888888888888	2	5.273268863720053	1.2777777777777777	0.5555555555555556	0.5	0.6111111111111112	1	0.5555555555555556	0.4444444444444444	0.555555656768491	0.439906989800415	0.155955948117265	38.8107822952702	None	51.0052061689845	2.07198655709883e-5	18	FALSE
AM	both	Canonical	Left	107.79166666666667	8.305555555555555	2	8.51388888888889	0	6.138888888888889	0.2361111111111111	1.5	6.814996367055654	-0.20833333333333334	0.5416666666666666	0.4861111111111111	0.5555555555555556	0	0.5416666666666666	0.5	0.594363733859856	0.391983799573335	0.458853398313947	153.957071339622	message= , call= bobyqa(par = par, fn = ufn, lower = lower, upper = upper, control = mcontrol,     ...)	204.328802478166	1.07555368170219e-21	72	FALSE
AM	both	Canonical	Right	107.79166666666667	8	2	8.51388888888889	0	7.916666666666667	0.20833333333333334	1.5	7.086288033139782	-0.5138888888888888	0.5416666666666666	0.4861111111111111	0.5555555555555556	0	0.5416666666666666	0.5	0.418677726961965	0.0993306354705208	0.491850654632193	177.443384135013	None	204.444891363878	1.12040020711365e-11	72	FALSE
AM	both	Inverted	Left	107.58333333333333	8.48611111111111	2	8.833333333333334	1	7.708333333333333	0.4027777777777778	1.5138888888888888	7.577556853430805	-0.3472222222222222	0.4583333333333333	0.5138888888888888	0.375	1	0.5277777777777778	0.4444444444444444	0.531064049847296	0.548480688135395	0.394824671015939	169.882420766911	message= , call= bobyqa(par = par, fn = ufn, lower = lower, upper = upper, control = mcontrol,     ...)	212.529609040951	2.24371027210749e-18	72	FALSE
AM	both	Inverted	Right	107.58333333333333	8.916666666666666	2	8.833333333333334	1	7.847222222222222	0.25	1.5138888888888888	7.883973282945387	0.08333333333333333	0.4583333333333333	0.5138888888888888	0.375	1	0.5277777777777778	0.4444444444444444	0.490336879852103	0.270270535856622	0.528726199015485	175.672193904181	None	209.504540944177	1.34958811065646e-14	72	FALSE
AM	left	Canonical	Left	89.11111111111111	9.944444444444445	1	9.444444444444445	0	7.666666666666667	0.16666666666666666	1	5.302142672720947	0.5	0.7222222222222222	0.6111111111111112	0.5555555555555556	0	0.6111111111111112	0.6666666666666666	0.746031978074679	0.41242557255292	0.147684167644439	29.9707874578209	message= , call= bobyqa(par = par, fn = ufn, lower = lower, upper = upper, control = mcontrol,     ...)	51.4106709570928	2.60998925891838e-9	18	FALSE
AM	left	Canonical	Right	89.11111111111111	NA	1	NaN	NaN	NaN	NaN	1	NaN	NA	NaN	-99	-99	-99	-99	-99	NA	NA	NA	NA	NA	NA	NA	NA	FALSE
AM	left	Inverted	Left	98.27777777777777	8.222222222222221	1	8.722222222222221	1	8.944444444444445	0.6666666666666666	1	4.88288907866566	-0.5	0.5	0.2777777777777778	0.6666666666666666	1	0.4444444444444444	0.3888888888888889	0.659554734700763	-0.00400022118998341	0.458665668487023	34.3670869375127	None	50.0209109291727	7.32245957208319e-7	18	FALSE
AM	left	Inverted	Right	98.27777777777777	NA	1	NaN	NaN	NaN	NaN	1	NaN	NA	NaN	-99	-99	-99	-99	-99	NA	NA	NA	NA	NA	NA	NA	NA	FALSE
AM	right	Canonical	Left	108.38888888888889	NA	1	NaN	NaN	NaN	NaN	2	NaN	NA	NaN	-99	-99	-99	-99	-99	NA	NA	NA	NA	NA	NA	NA	NA	FALSE
AM	right	Canonical	Right	108.38888888888889	8.722222222222221	1	8.61111111111111	0	9.88888888888889	0.3888888888888889	2	7.041481332500957	0.1111111111111111	0.5555555555555556	0.7222222222222222	0.5	0	0.7777777777777778	0.2777777777777778	0.886095895941829	0.61362031014472	0.725896538691178	29.5067691147026	message= , call= bobyqa(par = par, fn = ufn, lower = lower, upper = upper, control = mcontrol,     ...)	51.1875275497785	2.06228508247436e-9	18	FALSE
AM	right	Inverted	Left	144.72222222222223	NA	1	NaN	NaN	NaN	NaN	2	NaN	NA	NaN	-99	-99	-99	-99	-99	NA	NA	NA	NA	NA	NA	NA	NA	FALSE
AM	right	Inverted	Right	144.72222222222223	9.166666666666666	1	8.61111111111111	1	7.333333333333333	0.6111111111111112	2	2.3501714569477676	0.5555555555555556	0.5555555555555556	0.3333333333333333	0.3888888888888889	1	0.3888888888888889	0.4444444444444444	0.786005632929594	0.427947503927929	0.491410798110332	29.5427908638924	message= , call= bobyqa(par = par, fn = ufn, lower = lower, upper = upper, control = mcontrol,     ...)	49.9065941203163	7.4695241192139e-9	18	FALSE
AN	both	Canonical	Left	113.52777777777777	8.416666666666666	2	8.722222222222221	0	7.319444444444445	0.3055555555555556	1.4027777777777777	4.951944095291562	-0.3055555555555556	0.5555555555555556	0.5833333333333334	0.5555555555555556	0	0.5555555555555556	0.4722222222222222	0.643517565423249	0.0926739695167401	0.497109490598042	149.862278698309	None	207.032231364118	1.27700812528292e-24	72	FALSE
AN	both	Canonical	Right	113.52777777777777	9.166666666666666	2	8.722222222222221	0	7.847222222222222	0.6527777777777778	1.4027777777777777	5.50238453048587	0.4444444444444444	0.5555555555555556	0.5833333333333334	0.5555555555555556	0	0.5555555555555556	0.4722222222222222	0.282570850771806	-0.018817769717485	0.897429867343317	201.694244842385	None	209.928816175037	9.08554185329072e-4	72	FALSE
AN	both	Inverted	Left	108.73611111111111	8.416666666666666	2	8.75	1	7.722222222222222	0.5694444444444444	1.5	5.313329984694469	-0.3333333333333333	0.4861111111111111	0.4444444444444444	0.4166666666666667	1	0.4305555555555556	0.5694444444444444	0.641699641399806	0.0721756806012131	0.612299571448491	154.188736810994	None	204.349962206558	1.32483495237369e-21	72	FALSE
AN	both	Inverted	Right	108.73611111111111	9.194444444444445	2	8.75	1	8.333333333333334	0.6388888888888888	1.5	5.513006503986213	0.4444444444444444	0.4861111111111111	0.4444444444444444	0.4166666666666667	1	0.4305555555555556	0.5694444444444444	0.204684366622576	0.385343506936831	0.817868611346049	212.227436218368	message= , call= bobyqa(par = par, fn = ufn, lower = lower, upper = upper, control = mcontrol,     ...)	217.327897990648	0.0169332009374353	72	FALSE
AN	left	Canonical	Left	115.38888888888889	8.666666666666666	1	8.944444444444445	0	7.333333333333333	0.3888888888888889	1	3.4852183753901045	-0.2777777777777778	0.4444444444444444	0.5	0.3333333333333333	0	0.4444444444444444	0.5	0.492063658008107	0.283484713090536	0.130376081402369	37.7953400689455	None	50.9733405156627	8.03295821697387e-6	18	FALSE
AN	left	Canonical	Right	115.38888888888889	NA	1	NaN	NaN	NaN	NaN	1	NaN	NA	NaN	-99	-99	-99	-99	-99	NA	NA	NA	NA	NA	NA	NA	NA	FALSE
AN	left	Inverted	Left	88.44444444444444	9.277777777777779	1	9.055555555555555	1	7.277777777777778	0.8333333333333334	1	2.996937456279637	0.2222222222222222	0.5555555555555556	0.4444444444444444	0.4444444444444444	1	0.4444444444444444	0.5555555555555556	0.722453429017977	0.311809494869395	0.470105474973965	32.9027040673655	None	50.6503848861626	9.57330059048185e-8	18	FALSE
AN	left	Inverted	Right	88.44444444444444	NA	1	NaN	NaN	NaN	NaN	1	NaN	NA	NaN	-99	-99	-99	-99	-99	NA	NA	NA	NA	NA	NA	NA	NA	FALSE
AN	right	Canonical	Left	112.44444444444444	NA	1	NaN	NaN	NaN	NaN	2	NaN	NA	NaN	-99	-99	-99	-99	-99	NA	NA	NA	NA	NA	NA	NA	NA	FALSE
AN	right	Canonical	Right	112.44444444444444	8.88888888888889	1	9.277777777777779	0	4.888888888888889	0.6666666666666666	2	2.5736850951103003	-0.3888888888888889	0.4444444444444444	0.4444444444444444	0.5555555555555556	0	0.5555555555555556	0.7222222222222222	0.792821264774801	0.859624566569526	0.530494028691145	30.3959696260588	message= , call= bobyqa(par = par, fn = ufn, lower = lower, upper = upper, control = mcontrol,     ...)	50.4714963884346	9.89775453627543e-9	18	FALSE
AN	right	Inverted	Left	96.66666666666667	NA	1	NaN	NaN	NaN	NaN	2	NaN	NA	NaN	-99	-99	-99	-99	-99	NA	NA	NA	NA	NA	NA	NA	NA	FALSE
AN	right	Inverted	Right	96.66666666666667	7.666666666666667	1	7.388888888888889	1	7.333333333333333	0.9444444444444444	2	2.8038324147799156	0.2777777777777778	0.3333333333333333	0.3888888888888889	0.5	1	0.5	0.2777777777777778	0.740831654590713	0.865268670105356	1.06240039883204	38.8133166416579	message= , call= bobyqa(par = par, fn = ufn, lower = lower, upper = upper, control = mcontrol,     ...)	50.4943806572184	3.39387209147487e-5	18	FALSE
AO	both	Canonical	Left	112.875	8.333333333333334	2	8.569444444444445	0	6.888888888888889	0.06944444444444445	1.4027777777777777	2.988146851708229	-0.2361111111111111	0.5138888888888888	0.5555555555555556	0.5833333333333334	0	0.6388888888888888	0.4722222222222222	0.829097742532504	0.0201499555487463	0.354068859298031	94.6204265589036	None	203.024490612494	9.83287362214521e-47	72	FALSE
AO	both	Canonical	Right	112.875	8.083333333333334	2	8.569444444444445	0	7.208333333333333	0.4166666666666667	1.4027777777777777	3.4012899548610624	-0.4861111111111111	0.5138888888888888	0.5555555555555556	0.5833333333333334	0	0.6388888888888888	0.4722222222222222	0.407683558848836	0.42586927350642	0.70036647020442	188.24221594949	None	208.714345857762	6.71965027582317e-9	72	FALSE
AO	both	Inverted	Left	118.77777777777777	9.01388888888889	2	8.73611111111111	1	7.736111111111111	0.3055555555555556	1.5	3.0655151955417574	0.2777777777777778	0.4722222222222222	0.5138888888888888	0.4722222222222222	1	0.4027777777777778	0.375	0.707271497687001	0.47144395255165	0.626417934285641	144.232456439774	None	204.245183276532	7.61999722044739e-26	72	FALSE
AO	both	Inverted	Right	118.77777777777777	8.88888888888889	2	8.73611111111111	1	7.888888888888889	0.4444444444444444	1.5	3.101460375486176	0.1527777777777778	0.4722222222222222	0.5138888888888888	0.4722222222222222	1	0.4027777777777778	0.375	0.606733359565927	0.604669970115539	0.67605241226677	159.873714238755	message= , call= bobyqa(par = par, fn = ufn, lower = lower, upper = upper, control = mcontrol,     ...)	203.566635187945	7.97908986260927e-19	72	FALSE
AO	left	Canonical	Left	87.27777777777777	9.61111111111111	1	8.555555555555555	0	6.888888888888889	0.1111111111111111	1	2.0449781339448743	1.0555555555555556	0.5	0.4444444444444444	0.6111111111111112	0	0.5	0.6666666666666666	0.755340957575598	0.274610708233146	0.532998253192391	33.2582663926462	message= , call= bobyqa(par = par, fn = ufn, lower = lower, upper = upper, control = mcontrol,     ...)	51.8806745703385	4.08401559470255e-8	18	FALSE
AO	left	Canonical	Right	87.27777777777777	NA	1	NaN	NaN	NaN	NaN	1	NaN	NA	NaN	-99	-99	-99	-99	-99	NA	NA	NA	NA	NA	NA	NA	NA	FALSE
AO	left	Inverted	Left	84.5	9.333333333333334	1	8.833333333333334	1	8.666666666666666	0.3333333333333333	1	1.9213262331665848	0.5	0.3888888888888889	0.3888888888888889	0.6111111111111112	1	0.5555555555555556	0.5555555555555556	0.789168519418207	0.280869946037239	0.593973144582657	33.2244441369885	None	51.9378329747667	3.73749568454492e-8	18	FALSE
AO	left	Inverted	Right	84.5	NA	1	NaN	NaN	NaN	NaN	1	NaN	NA	NaN	-99	-99	-99	-99	-99	NA	NA	NA	NA	NA	NA	NA	NA	FALSE
AO	right	Canonical	Left	86.11111111111111	NA	1	NaN	NaN	NaN	NaN	2	NaN	NA	NaN	-99	-99	-99	-99	-99	NA	NA	NA	NA	NA	NA	NA	NA	FALSE
AO	right	Canonical	Right	86.11111111111111	9	1	9	0	6.722222222222222	0.16666666666666666	2	1.9475147765002576	0	0.5	0.6666666666666666	0.5555555555555556	0	0.3888888888888889	0.4444444444444444	0.85577597073281	0.455981384405973	0.501682135637496	26.9836649548465	None	50.8510554777286	2.42498773749967e-10	18	FALSE
AO	right	Inverted	Left	117.5	NA	1	NaN	NaN	NaN	NaN	2	NaN	NA	NaN	-99	-99	-99	-99	-99	NA	NA	NA	NA	NA	NA	NA	NA	FALSE
AO	right	Inverted	Right	117.5	9.11111111111111	1	8.833333333333334	1	7.555555555555555	0.4444444444444444	2	1.9997224498331687	0.2777777777777778	0.3888888888888889	0.2777777777777778	0.5	1	0.5	0.3888888888888889	0.862020877409335	0.670483588785767	0.732637737010187	29.5919003807002	None	49.9065941203163	7.83647357840124e-9	18	FALSE
AP	both	Canonical	Left	113.20833333333333	11.23611111111111	2	8.26388888888889	0	8.930555555555555	0.5972222222222222	1.6805555555555556	4.197956441041713	2.9722222222222223	0.4722222222222222	0.4444444444444444	0.5555555555555556	0	0.5694444444444444	0.4722222222222222	0.405078324698348	4	4	218.465172838781	message= , call= bobyqa(par = par, fn = ufn, lower = lower, upper = upper, control = mcontrol,     ...)	220.726743700279	0.210235363603889	72	FALSE
AP	both	Canonical	Right	113.20833333333333	12.083333333333334	2	8.26388888888889	0	9.041666666666666	0.5555555555555556	1.6805555555555556	3.4230354672916814	3.8194444444444446	0.4722222222222222	0.4444444444444444	0.5555555555555556	0	0.5694444444444444	0.4722222222222222	0.285714403231274	0.509915187546837	0.162643373389986	208.849136392342	None	223.388943504145	2.1548017447761e-6	72	FALSE
AP	both	Inverted	Left	96.68055555555556	12.555555555555555	2	8.527777777777779	1	8.180555555555555	0.5694444444444444	1.375	3.3066412022499745	4.027777777777778	0.5138888888888888	0.5138888888888888	0.4861111111111111	1	0.4722222222222222	0.4861111111111111	0.0814815053707766	1.09513803234507	0.008538260675845	236.660347568918	None	239.375846633513	0.142824439202586	72	FALSE
AP	both	Inverted	Right	96.68055555555556	11.38888888888889	2	8.527777777777779	1	8.583333333333334	0.6527777777777778	1.375	4.025221685222198	2.861111111111111	0.5138888888888888	0.5138888888888888	0.4861111111111111	1	0.4722222222222222	0.4861111111111111	0.257751656820877	0.446741439148168	0.72171136311332	221.475651466101	message= , call= bobyqa(par = par, fn = ufn, lower = lower, upper = upper, control = mcontrol,     ...)	230.144084230218	6.02485235430061e-4	72	FALSE
AP	left	Canonical	Left	102	12.88888888888889	1	8.61111111111111	0	9.055555555555555	0.7222222222222222	1	2.4002174924999813	4.277777777777778	0.5	0.5	0.5555555555555556	0	0.7222222222222222	0.5555555555555556	0.24568991219425	0.753913599554861	0.388291956800941	54.2334570886044	None	57.2038349848848	0.114528430759987	18	FALSE
AP	left	Canonical	Right	102	NA	1	NaN	NaN	NaN	NaN	1	NaN	NA	NaN	-99	-99	-99	-99	-99	NA	NA	NA	NA	NA	NA	NA	NA	FALSE
AP	left	Inverted	Left	104.61111111111111	10.38888888888889	1	8.666666666666666	1	6.944444444444445	0.3888888888888889	1	2.6571773456111156	1.7222222222222223	0.6111111111111112	0.5	0.6111111111111112	1	0.4444444444444444	0.3333333333333333	0.428571566030983	0.368359089233258	0.141396827383645	45.3017257803958	None	54.2128026397158	4.78602305640532e-4	18	FALSE
AP	left	Inverted	Right	104.61111111111111	NA	1	NaN	NaN	NaN	NaN	1	NaN	NA	NaN	-99	-99	-99	-99	-99	NA	NA	NA	NA	NA	NA	NA	NA	FALSE
AP	right	Canonical	Left	139.77777777777777	NA	1	NaN	NaN	NaN	NaN	2	NaN	NA	NaN	-99	-99	-99	-99	-99	NA	NA	NA	NA	NA	NA	NA	NA	FALSE
AP	right	Canonical	Right	139.77777777777777	9.444444444444445	1	8.722222222222221	0	6.666666666666667	0.5555555555555556	2	2.2573142657777603	0.7222222222222222	0.4444444444444444	0.5555555555555556	0.7222222222222222	0	0.5555555555555556	0.4444444444444444	0.585585590953179	0.29097313818966	0.455299312935465	37.7342100311475	None	50.0889156451103	1.77584962520113e-5	18	FALSE
AP	right	Inverted	Left	116.05555555555556	NA	1	NaN	NaN	NaN	NaN	2	NaN	NA	NaN	-99	-99	-99	-99	-99	NA	NA	NA	NA	NA	NA	NA	NA	FALSE
AP	right	Inverted	Right	116.05555555555556	9.777777777777779	1	9.166666666666666	1	7.222222222222222	0.7222222222222222	2	2.6325343837222714	0.6111111111111112	0.5	0.4444444444444444	0.5	1	0.4444444444444444	0.3888888888888889	0.453352748433689	0.136789589732507	0.38149577165174	42.8940640033	None	51.8983838448055	4.38048675889017e-4	18	FALSE
AQ	both	Canonical	Left	113.79166666666667	9.25	2	8.5	0	8.01388888888889	0.3472222222222222	1.4861111111111112	4.483757305277878	0.75	0.5277777777777778	0.5277777777777778	0.5972222222222222	0	0.5416666666666666	0.5138888888888888	0.846911137323193	0.326651132596963	0.830463758508303	129.788895601371	None	202.126756055532	3.70830620925744e-31	72	FALSE
AQ	both	Canonical	Right	113.79166666666667	8.36111111111111	2	8.5	0	8.402777777777779	0.5	1.4861111111111112	4.569431303833375	-0.1388888888888889	0.5277777777777778	0.5277777777777778	0.5972222222222222	0	0.5416666666666666	0.5138888888888888	0.573443438444565	0.358089064007511	0.995402196324582	176.01052865459	message= , call= bobyqa(par = par, fn = ufn, lower = lower, upper = upper, control = mcontrol,     ...)	205.704287426798	7.94490321707334e-13	72	FALSE
AQ	both	Inverted	Left	103.125	9.694444444444445	2	8.86111111111111	1	7.694444444444445	0.7083333333333334	1.4861111111111112	4.248109558902696	0.8333333333333334	0.3888888888888889	0.4861111111111111	0.3472222222222222	1	0.4722222222222222	0.5138888888888888	0.661979267391509	0.733277854169123	0.849951351301079	163.912465323488	None	207.431775703872	9.47340505756964e-19	72	FALSE
AQ	both	Inverted	Right	103.125	8.722222222222221	2	8.86111111111111	1	8.694444444444445	0.6944444444444444	1.4861111111111112	4.327143055041789	-0.1388888888888889	0.3888888888888889	0.4861111111111111	0.3472222222222222	1	0.4722222222222222	0.5138888888888888	0.474994808258364	0.249145403031669	0.732066859746007	178.365723523621	None	204.227330997431	3.43079632676336e-11	72	FALSE
AQ	left	Canonical	Left	88.05555555555556	10.11111111111111	1	9.722222222222221	0	10	0.16666666666666666	1	2.269773640110947	0.3888888888888889	0.5555555555555556	0.5555555555555556	0.5	0	0.6111111111111112	0.5	1	0.399352307581947	0.517156966656369	16.0813808384939	None	49.9065941203163	1.35911091697462e-14	18	FALSE
AQ	left	Canonical	Right	88.05555555555556	NA	1	NaN	NaN	NaN	NaN	1	NaN	NA	NaN	-99	-99	-99	-99	-99	NA	NA	NA	NA	NA	NA	NA	NA	FALSE
AQ	left	Inverted	Left	113.72222222222223	7.777777777777778	1	8.277777777777779	1	5.944444444444445	0.8333333333333334	1	2.894321613222322	-0.5	0.6666666666666666	0.3888888888888889	0.4444444444444444	1	0.2777777777777778	0.5	0.809523937512638	0.460583920868338	0.151038172014317	26.6149218256454	None	50.3990705035959	2.6310697203372e-10	18	FALSE
AQ	left	Inverted	Right	113.72222222222223	NA	1	NaN	NaN	NaN	NaN	1	NaN	NA	NaN	-99	-99	-99	-99	-99	NA	NA	NA	NA	NA	NA	NA	NA	FALSE
AQ	right	Canonical	Left	107.27777777777777	NA	1	NaN	NaN	NaN	NaN	2	NaN	NA	NaN	-99	-99	-99	-99	-99	NA	NA	NA	NA	NA	NA	NA	NA	FALSE
AQ	right	Canonical	Right	107.27777777777777	8.944444444444445	1	7.833333333333333	0	8.944444444444445	0.5	2	2.8673278394442403	1.1111111111111112	0.5	0.6111111111111112	0.6111111111111112	0	0.3333333333333333	0.5555555555555556	0.7846375165908	0.398729711478703	0.750100304797062	33.6936125809588	None	50.3120591484245	2.87060140765409e-7	18	FALSE
AQ	right	Inverted	Left	125.27777777777777	NA	1	NaN	NaN	NaN	NaN	2	NaN	NA	NaN	-99	-99	-99	-99	-99	NA	NA	NA	NA	NA	NA	NA	NA	FALSE
AQ	right	Inverted	Right	125.27777777777777	8.38888888888889	1	7.888888888888889	1	9.722222222222221	0.8888888888888888	2	2.6347866461667055	0.5	0.5	0.5555555555555556	0.5	1	0.2777777777777778	0.4444444444444444	0.655739069880364	0.259681511432545	0.451135037591838	35.1668768465879	None	50.4092228854496	1.09123348120285e-6	18	FALSE
AR	both	Canonical	Left	115.02777777777777	8.791666666666666	2	8.11111111111111	0	9.51388888888889	0.1111111111111111	1.4027777777777777	2.727945177291556	0.6805555555555556	0.5555555555555556	0.4583333333333333	0.5555555555555556	0	0.5694444444444444	0.6527777777777778	0.831200960597614	0.346504696018421	0.336123528327857	101.991556150846	message= , call= bobyqa(par = par, fn = ufn, lower = lower, upper = upper, control = mcontrol,     ...)	203.266897419376	1.18580566754993e-43	72	FALSE
AR	both	Canonical	Right	115.02777777777777	9.597222222222221	2	8.11111111111111	0	8.402777777777779	0.1111111111111111	1.4027777777777777	3.0399076371248714	1.4861111111111112	0.5555555555555556	0.4583333333333333	0.5555555555555556	0	0.5694444444444444	0.6527777777777778	0.460594306566826	0.414618848946231	0.455783123123402	177.324253976129	None	209.285884553704	8.52414914934658e-14	72	FALSE
AR	both	Inverted	Left	98.81944444444444	9.416666666666666	2	8.51388888888889	1	8.347222222222221	0.3611111111111111	1.4722222222222223	3.034424296819528	0.9027777777777778	0.3888888888888889	0.5555555555555556	0.5277777777777778	1	0.4305555555555556	0.4861111111111111	0.662602298984463	0.420430822356668	0.609275291283889	152.004593404632	message= , call= bobyqa(par = par, fn = ufn, lower = lower, upper = upper, control = mcontrol,     ...)	205.704411486432	3.98011389353554e-23	72	FALSE
AR	both	Inverted	Right	98.81944444444444	9.26388888888889	2	8.51388888888889	1	7.194444444444445	0.1388888888888889	1.4722222222222223	3.1440605144166764	0.75	0.3888888888888889	0.5555555555555556	0.5277777777777778	1	0.4305555555555556	0.4861111111111111	0.407804665182587	0.739800551209293	0.542748411134894	186.142644254781	None	210.314100342991	1.80009990969261e-10	72	FALSE
AR	left	Canonical	Left	78.22222222222223	8.666666666666666	1	8.38888888888889	0	7.555555555555555	0.1111111111111111	1	1.8644659716666057	0.2777777777777778	0.3888888888888889	0.5555555555555556	0.5555555555555556	0	0.4444444444444444	0.6111111111111112	0.923338595558278	0.460147843636477	0.504473437004883	21.9001570922377	message= , call= bobyqa(par = par, fn = ufn, lower = lower, upper = upper, control = mcontrol,     ...)	49.9065941203163	4.174444562581e-12	18	FALSE
AR	left	Canonical	Right	78.22222222222223	NA	1	NaN	NaN	NaN	NaN	1	NaN	NA	NaN	-99	-99	-99	-99	-99	NA	NA	NA	NA	NA	NA	NA	NA	FALSE
AR	left	Inverted	Left	105.55555555555556	8.444444444444445	1	8.61111111111111	1	9.444444444444445	0.5555555555555556	1	1.8701989729999897	-0.16666666666666666	0.5555555555555556	0.3888888888888889	0.5	1	0.3888888888888889	0.5555555555555556	0.619047894736396	0.463393432818024	0.161343807141618	39.5078564287524	None	53.9725376880174	2.31728642356417e-6	18	FALSE
AR	left	Inverted	Right	105.55555555555556	NA	1	NaN	NaN	NaN	NaN	1	NaN	NA	NaN	-99	-99	-99	-99	-99	NA	NA	NA	NA	NA	NA	NA	NA	FALSE
AR	right	Canonical	Left	137.33333333333334	NA	1	NaN	NaN	NaN	NaN	2	NaN	NA	NaN	-99	-99	-99	-99	-99	NA	NA	NA	NA	NA	NA	NA	NA	FALSE
AR	right	Canonical	Right	137.33333333333334	8.88888888888889	1	8.222222222222221	0	10.88888888888889	0.2777777777777778	2	1.8248743636668223	0.6666666666666666	0.3888888888888889	0.7222222222222222	0.3888888888888889	0	0.5555555555555556	0.6111111111111112	0.823080650832884	0.121676556253663	0.569773058720173	28.7626570527955	None	50.0889156451103	2.91663463974845e-9	18	FALSE
AR	right	Inverted	Left	125.5	NA	1	NaN	NaN	NaN	NaN	2	NaN	NA	NaN	-99	-99	-99	-99	-99	NA	NA	NA	NA	NA	NA	NA	NA	FALSE
AR	right	Inverted	Right	125.5	7.833333333333333	1	8.222222222222221	1	8.833333333333334	0.3888888888888889	2	2.1090388511108054	-0.3888888888888889	0.3888888888888889	0.5	0.3333333333333333	1	0.5	0.3333333333333333	0.748603445456147	0.664791779760057	1.07014392551479	40.8862028278933	message= , call= bobyqa(par = par, fn = ufn, lower = lower, upper = upper, control = mcontrol,     ...)	52.6428141469572	3.15630622760554e-5	18	FALSE
AS	both	Canonical	Left	114.93055555555556	8.38888888888889	2	8.319444444444445	0	7	0.1111111111111111	1.5833333333333333	4.269094341375017	0.06944444444444445	0.5833333333333334	0.5	0.5277777777777778	0	0.5277777777777778	0.4861111111111111	0.794127246702608	0.239439878646505	0.406156900848496	113.191216083389	None	203.791141447005	4.85678156549039e-39	72	FALSE
AS	both	Canonical	Right	114.93055555555556	7.875	2	8.319444444444445	0	8.61111111111111	0.4583333333333333	1.5833333333333333	3.9259655377498652	-0.4444444444444444	0.5833333333333334	0.5	0.5277777777777778	0	0.5277777777777778	0.4861111111111111	0.615555211791708	0.292288622228765	0.544665073084439	155.697604170186	None	205.728410716925	1.5074662847369e-21	72	FALSE
AS	both	Inverted	Left	108.48611111111111	8.75	2	8.75	1	7.638888888888889	0.4027777777777778	1.4444444444444444	4.077684111486229	0	0.4444444444444444	0.4305555555555556	0.5277777777777778	1	0.5277777777777778	0.5	0.683417275233408	0.469771858194539	0.49038722492235	140.299030255633	None	203.504294221362	3.21018482204316e-27	72	FALSE
AS	both	Inverted	Right	108.48611111111111	9.069444444444445	2	8.75	1	8.291666666666666	0.6111111111111112	1.4444444444444444	4.199324720458208	0.3194444444444444	0.4444444444444444	0.4305555555555556	0.5277777777777778	1	0.5277777777777778	0.5	0.837525353804104	0.378628782922995	0.619010189967274	117.33717444876	None	200.675026366779	6.6418576073985093e-36	72	FALSE
AS	left	Canonical	Left	106.22222222222223	9.277777777777779	1	8.722222222222221	0	6.166666666666667	0.05555555555555555	1	2.23854604516661	0.5555555555555556	0.5	0.4444444444444444	0.5	0	0.4444444444444444	0.5555555555555556	0.936508241131176	0.419146791423959	0.147956612408917	17.0509904448068	message= , call= bobyqa(par = par, fn = ufn, lower = lower, upper = upper, control = mcontrol,     ...)	50.1579085028829	2.75853862241e-14	18	FALSE
AS	left	Canonical	Right	106.22222222222223	NA	1	NaN	NaN	NaN	NaN	1	NaN	NA	NaN	-99	-99	-99	-99	-99	NA	NA	NA	NA	NA	NA	NA	NA	FALSE
AS	left	Inverted	Left	111.22222222222223	9.055555555555555	1	8.88888888888889	1	8.722222222222221	0.7777777777777778	1	2.731190081889104	0.16666666666666666	0.6111111111111112	0.5	0.3333333333333333	1	0.3333333333333333	0.7222222222222222	0.794580319580169	0.150302303954362	0.402111797631136	27.4523142975224	None	50.5997411408763	4.90909109318428e-10	18	FALSE
AS	left	Inverted	Right	111.22222222222223	NA	1	NaN	NaN	NaN	NaN	1	NaN	NA	NaN	-99	-99	-99	-99	-99	NA	NA	NA	NA	NA	NA	NA	NA	FALSE
AS	right	Canonical	Left	87.72222222222223	NA	1	NaN	NaN	NaN	NaN	2	NaN	NA	NaN	-99	-99	-99	-99	-99	NA	NA	NA	NA	NA	NA	NA	NA	FALSE
AS	right	Canonical	Right	87.72222222222223	8.444444444444445	1	8.277777777777779	0	8.666666666666666	0.05555555555555555	2	2.4107995271109153	0.16666666666666666	0.6111111111111112	0.3333333333333333	0.3333333333333333	0	0.4444444444444444	0.5555555555555556	0.936508081905254	0.285129677142816	0.134509855293462	10.3043265807157	message= , call= bobyqa(par = par, fn = ufn, lower = lower, upper = upper, control = mcontrol,     ...)	49.9065941203163	4.54623381649544e-17	18	FALSE
AS	right	Inverted	Left	103.16666666666667	NA	1	NaN	NaN	NaN	NaN	2	NaN	NA	NaN	-99	-99	-99	-99	-99	NA	NA	NA	NA	NA	NA	NA	NA	FALSE
AS	right	Inverted	Right	103.16666666666667	8.11111111111111	1	8.277777777777779	1	9.555555555555555	0.9444444444444444	2	2.445618772500085	-0.16666666666666666	0.4444444444444444	0.2777777777777778	0.5555555555555556	1	0.6666666666666666	0.4444444444444444	0.936508093940082	0.333615052568537	0.138259994111964	12.8410197807644	message= , call= log(likelihood + 1e-08)	50.0889156451103	4.64693920951503e-16	18	FALSE
AT	both	Canonical	Left	112	9.166666666666666	2	8.76388888888889	0	8.472222222222221	0.1111111111111111	1.4861111111111112	3.6756941916526356	0.4027777777777778	0.5416666666666666	0.4861111111111111	0.5138888888888888	0	0.4444444444444444	0.5694444444444444	0.66183847353018	0.243032973131363	0.460882646999523	144.597912379625	message= , call= bobyqa(par = par, fn = ufn, lower = lower, upper = upper, control = mcontrol,     ...)	206.507827111145	1.1605577505196e-26	72	FALSE
AT	both	Canonical	Right	112	9.166666666666666	2	8.76388888888889	0	6.611111111111111	0.3888888888888889	1.4861111111111112	3.6952122172916058	0.4027777777777778	0.5416666666666666	0.4861111111111111	0.5138888888888888	0	0.4444444444444444	0.5694444444444444	0.705928036693761	0.543129333663112	0.547247872288868	142.147923437963	None	206.095594418164	1.53675110175823e-27	72	FALSE
AT	both	Inverted	Left	112.33333333333333	8.041666666666666	2	8.26388888888889	1	7.305555555555555	0.19444444444444445	1.4027777777777777	3.4445827823749116	-0.2222222222222222	0.4583333333333333	0.5	0.5138888888888888	1	0.4027777777777778	0.5694444444444444	0.48096976142824	-0.188806608799571	1.26831920451947	196.127756763894	message= , call= bobyqa(par = par, fn = ufn, lower = lower, upper = upper, control = mcontrol,     ...)	212.774197807957	2.79357490237538e-7	72	FALSE
AT	both	Inverted	Right	112.33333333333333	8.847222222222221	2	8.26388888888889	1	7.75	0.5416666666666666	1.4027777777777777	3.895053958819517	0.5833333333333334	0.4583333333333333	0.5	0.5138888888888888	1	0.4027777777777778	0.5694444444444444	0.614582961300028	0.480279936095144	0.662072881964364	162.949556219177	message= , call= bobyqa(par = par, fn = ufn, lower = lower, upper = upper, control = mcontrol,     ...)	207.870877417753	2.36785505850604e-19	72	FALSE
AT	left	Canonical	Left	97.94444444444444	8.88888888888889	1	8.277777777777779	0	9.166666666666666	0.16666666666666666	1	2.186477508111137	0.6111111111111112	0.5	0.4444444444444444	0.5	0	0.5555555555555556	0.6666666666666666	0.931557787130459	0.130111987532105	0.393326520062871	18.64915310481	message= , call= log(likelihood + 1e-08)	50.5997411408763	8.61735458712627e-14	18	FALSE
AT	left	Canonical	Right	97.94444444444444	NA	1	NaN	NaN	NaN	NaN	1	NaN	NA	NaN	-99	-99	-99	-99	-99	NA	NA	NA	NA	NA	NA	NA	NA	FALSE
AT	left	Inverted	Left	112.77777777777777	9.277777777777779	1	8.333333333333334	1	9.61111111111111	0.6111111111111112	1	3.1671481142780573	0.9444444444444444	0.5	0.5	0.5555555555555556	1	0.2222222222222222	0.5555555555555556	0.794317136290562	0.215727030779365	0.439209028424477	29.2291375395147	None	51.2565204715511	1.46929186699566e-9	18	FALSE
AT	left	Inverted	Right	112.77777777777777	NA	1	NaN	NaN	NaN	NaN	1	NaN	NA	NaN	-99	-99	-99	-99	-99	NA	NA	NA	NA	NA	NA	NA	NA	FALSE
AT	right	Canonical	Left	92.83333333333333	NA	1	NaN	NaN	NaN	NaN	2	NaN	NA	NaN	-99	-99	-99	-99	-99	NA	NA	NA	NA	NA	NA	NA	NA	FALSE
AT	right	Canonical	Right	92.83333333333333	9	1	8.444444444444445	0	8.277777777777779	0.3888888888888889	2	2.3606227383340106	0.5555555555555556	0.5555555555555556	0.4444444444444444	0.5555555555555556	0	0.4444444444444444	0.5555555555555556	0.929187709566127	0.417755604009836	0.509254288427762	21.7712828154948	message= , call= bobyqa(par = par, fn = ufn, lower = lower, upper = upper, control = mcontrol,     ...)	49.9065941203163	3.67783712699982e-12	18	FALSE
AT	right	Inverted	Left	101.11111111111111	NA	1	NaN	NaN	NaN	NaN	2	NaN	NA	NaN	-99	-99	-99	-99	-99	NA	NA	NA	NA	NA	NA	NA	NA	FALSE
AT	right	Inverted	Right	101.11111111111111	7.777777777777778	1	7.777777777777778	1	8.222222222222221	0.8888888888888888	2	2.212019844611253	0	0.4444444444444444	0.2777777777777778	0.4444444444444444	1	0.5	0.3888888888888889	0.873016090825396	0.425071891452661	0.150328638343392	22.3054001444147	message= , call= bobyqa(par = par, fn = ufn, lower = lower, upper = upper, control = mcontrol,     ...)	50.7175241365327	2.80174610229487e-12	18	FALSE
AU	both	Canonical	Left	108.13888888888889	8.847222222222221	2	8.61111111111111	0	8.76388888888889	0.2361111111111111	1.5138888888888888	4.138239694180963	0.2361111111111111	0.6388888888888888	0.5694444444444444	0.5138888888888888	0	0.5138888888888888	0.5	0.666666938505218	0.3998450813167	0.155989704668039	132.676501101091	None	203.448462791992	1.75610158301456e-30	72	FALSE
AU	both	Canonical	Right	108.13888888888889	8.833333333333334	2	8.61111111111111	0	8.097222222222221	0.3472222222222222	1.5138888888888888	4.090841861444915	0.2222222222222222	0.6388888888888888	0.5694444444444444	0.5138888888888888	0	0.5138888888888888	0.5	0.504309260428992	0.0875187975028787	0.462612243642819	169.192324165792	message= , call= bobyqa(par = par, fn = ufn, lower = lower, upper = upper, control = mcontrol,     ...)	207.977946551347	1.01836359813568e-16	72	FALSE
AU	both	Inverted	Left	106.08333333333333	8.833333333333334	2	8.63888888888889	1	7.875	0.5972222222222222	1.375	3.748596305138815	0.19444444444444445	0.4444444444444444	0.5277777777777778	0.5	1	0.4166666666666667	0.3333333333333333	0.52646931776979	0.592993474318755	0.5730184013428	170.19723258754	None	206.889005651742	8.0446378998884e-16	72	FALSE
AU	both	Inverted	Right	106.08333333333333	8.86111111111111	2	8.63888888888889	1	7.986111111111111	0.3055555555555556	1.375	4.387234593749579	0.2222222222222222	0.4444444444444444	0.5277777777777778	0.5	1	0.4166666666666667	0.3333333333333333	0.275487774422905	0.545855289242558	0.94267463358848	209.797547129168	None	217.600766131208	0.00136533968850579	72	FALSE
AU	left	Canonical	Left	112.33333333333333	8.666666666666666	1	8.166666666666666	0	5.888888888888889	0.16666666666666666	1	3.7522468839455945	0.5	0.4444444444444444	0.6111111111111112	0.6666666666666666	0	0.6111111111111112	0.5	0.746031931586117	0.293280597191962	0.128026073291487	23.6933989929956	None	49.9065941203163	2.42956187944246e-11	18	FALSE
AU	left	Canonical	Right	112.33333333333333	NA	1	NaN	NaN	NaN	NaN	1	NaN	NA	NaN	-99	-99	-99	-99	-99	NA	NA	NA	NA	NA	NA	NA	NA	FALSE
AU	left	Inverted	Left	110.77777777777777	8.222222222222221	1	8.166666666666666	1	10.166666666666666	0.6666666666666666	1	2.9127404302220787	0.05555555555555555	0.5	0.3333333333333333	0.5	1	0.16666666666666666	0.7222222222222222	0.809523908810712	0.431903323063888	0.153284980257409	25.5749834015568	message= , call= bobyqa(par = par, fn = ufn, lower = lower, upper = upper, control = mcontrol,     ...)	49.9065941203163	1.53858181589116e-10	18	FALSE
AU	left	Inverted	Right	110.77777777777777	NA	1	NaN	NaN	NaN	NaN	1	NaN	NA	NaN	-99	-99	-99	-99	-99	NA	NA	NA	NA	NA	NA	NA	NA	FALSE
AU	right	Canonical	Left	108.94444444444444	NA	1	NaN	NaN	NaN	NaN	2	NaN	NA	NaN	-99	-99	-99	-99	-99	NA	NA	NA	NA	NA	NA	NA	NA	FALSE
AU	right	Canonical	Right	108.94444444444444	8.555555555555555	1	8.38888888888889	0	9.055555555555555	0.16666666666666666	2	2.3246520023324897	0.16666666666666666	0.5	0.7222222222222222	0.2222222222222222	0	0.6111111111111112	0.7222222222222222	0.863293165985554	0.0756250250544148	0.359246996507221	21.0397355828322	None	49.9065941203163	1.79173370039376e-12	18	FALSE
AU	right	Inverted	Left	113.05555555555556	NA	1	NaN	NaN	NaN	NaN	2	NaN	NA	NaN	-99	-99	-99	-99	-99	NA	NA	NA	NA	NA	NA	NA	NA	FALSE
AU	right	Inverted	Right	113.05555555555556	8.722222222222221	1	8.555555555555555	1	7.555555555555555	0.7777777777777778	2	3.7289011911666927	0.16666666666666666	0.5	0.5	0.3888888888888889	1	0.6111111111111112	0.3333333333333333	0.924507919843697	0.407491326948005	0.61228432946724	24.1655815578588	message= , call= log(likelihood + 1e-08)	49.9065941203163	3.86181014353639e-11	18	FALSE
AV	both	Canonical	Left	97.18055555555556	8.027777777777779	2	8.63888888888889	0	6.833333333333333	0.19444444444444445	1.5	3.99301702029172	-0.6111111111111112	0.5	0.5833333333333334	0.5972222222222222	0	0.5416666666666666	0.4583333333333333	0.606850166222045	0.075131404308876	0.397228873266363	146.84766358722499	message= , call= bobyqa(par = par, fn = ufn, lower = lower, upper = upper, control = mcontrol,     ...)	205.363027888376	3.36399006419242e-25	72	FALSE
AV	both	Canonical	Right	97.18055555555556	8.458333333333334	2	8.63888888888889	0	9.01388888888889	0.2777777777777778	1.5	4.086221746416919	-0.18055555555555555	0.5	0.5833333333333334	0.5972222222222222	0	0.5416666666666666	0.4583333333333333	0.574569696950973	0.259201942697991	0.658282051346683	163.296881791928	None	203.480867059927	2.55920397696781e-17	72	FALSE
AV	both	Inverted	Left	117.25	7.944444444444445	2	8.152777777777779	1	6.277777777777778	0.4722222222222222	1.5555555555555556	4.1256510082780045	-0.20833333333333334	0.4861111111111111	0.4583333333333333	0.4027777777777778	1	0.4861111111111111	0.4305555555555556	0.555626108044971	-0.154058498048012	0.33391903214813	154.729987787647	None	208.827343531381	2.68423032458069e-23	72	FALSE
AV	both	Inverted	Right	117.25	8.805555555555555	2	8.152777777777779	1	9.277777777777779	0.4722222222222222	1.5555555555555556	3.803161193125258	0.6527777777777778	0.4861111111111111	0.4583333333333333	0.4027777777777778	1	0.4861111111111111	0.4305555555555556	0.57107256773424	0.813011904397251	2.04378850952619	194.168975801111	message= , call= bobyqa(par = par, fn = ufn, lower = lower, upper = upper, control = mcontrol,     ...)	207.344333008278	8.05346680569743e-6	72	FALSE
AV	left	Canonical	Left	100.44444444444444	8.11111111111111	1	7.611111111111111	0	7.833333333333333	0.05555555555555555	1	2.1378222927228814	0.5	0.4444444444444444	0.4444444444444444	0.4444444444444444	0	0.6111111111111112	0.3888888888888889	0.819906483801146	-0.177610370652699	0.944551232738752	34.6537391339677	message= , call= bobyqa(par = par, fn = ufn, lower = lower, upper = upper, control = mcontrol,     ...)	50.1460740495384	8.56389465902433e-7	18	FALSE
AV	left	Canonical	Right	100.44444444444444	NA	1	NaN	NaN	NaN	NaN	1	NaN	NA	NaN	-99	-99	-99	-99	-99	NA	NA	NA	NA	NA	NA	NA	NA	FALSE
AV	left	Inverted	Left	121.16666666666667	8.055555555555555	1	8.277777777777779	1	7.888888888888889	0.7777777777777778	1	2.500685599111522	-0.2222222222222222	0.4444444444444444	0.6666666666666666	0.6111111111111112	1	0.6111111111111112	0.3888888888888889	0.862743111092827	0.0657303082143699	0.472673436919948	26.5691974723664	None	51.736093295989	6.78282525301154e-11	18	FALSE
AV	left	Inverted	Right	121.16666666666667	NA	1	NaN	NaN	NaN	NaN	1	NaN	NA	NaN	-99	-99	-99	-99	-99	NA	NA	NA	NA	NA	NA	NA	NA	FALSE
AV	right	Canonical	Left	126.5	NA	1	NaN	NaN	NaN	NaN	2	NaN	NA	NaN	-99	-99	-99	-99	-99	NA	NA	NA	NA	NA	NA	NA	NA	FALSE
AV	right	Canonical	Right	126.5	9.944444444444445	1	8.666666666666666	0	8.11111111111111	0.5	2	2.501158977944821	1.2777777777777777	0.4444444444444444	0.16666666666666666	0.3333333333333333	0	0.6666666666666666	0.6666666666666666	0.717953964295477	0.392224411571786	0.481623628007343	34.2835035673769	message= , call= bobyqa(par = par, fn = ufn, lower = lower, upper = upper, control = mcontrol,     ...)	51.5948462435749	1.46366037163755e-7	18	FALSE
AV	right	Inverted	Left	96.16666666666667	NA	1	NaN	NaN	NaN	NaN	2	NaN	NA	NaN	-99	-99	-99	-99	-99	NA	NA	NA	NA	NA	NA	NA	NA	FALSE
AV	right	Inverted	Right	96.16666666666667	8.11111111111111	1	8.666666666666666	1	10.277777777777779	0.8888888888888888	2	3.3825978060554514	-0.5555555555555556	0.3888888888888889	0.3888888888888889	0.7222222222222222	1	0.3333333333333333	0.5555555555555556	0.619047630778953	0.426561217709636	0.157504231000414	35.6998739707634	None	50.6767021820124	1.41138382737036e-6	18	FALSE
AW	both	Canonical	Left	109.72222222222223	9.38888888888889	2	8.777777777777779	0	8.194444444444445	0.1388888888888889	1.4861111111111112	4.273017015013971	0.6111111111111112	0.5	0.5	0.5555555555555556	0	0.4583333333333333	0.5555555555555556	0.81855760794949906	0.42784919579131	0.528128092922476	117.485836445755	None	203.261099909917	5.88738306767749e-37	72	FALSE
AW	both	Canonical	Right	109.72222222222223	8.541666666666666	2	8.777777777777779	0	10.11111111111111	0.125	1.4861111111111112	4.341020980666751	-0.2361111111111111	0.5	0.5	0.5555555555555556	0	0.4583333333333333	0.5555555555555556	0.481166129125124	0.383390694230107	0.532713222385868	176.68166373178	None	209.248281493873	4.69742229380112e-14	72	FALSE
AW	both	Inverted	Left	100.70833333333333	9.041666666666666	2	8.972222222222221	1	7.861111111111111	0.3194444444444444	1.4166666666666667	4.3326526953329045	0.06944444444444445	0.3472222222222222	0.5694444444444444	0.5416666666666666	1	0.5277777777777778	0.4583333333333333	0.687420420783279	0.267144133182025	0.494690274233722	139.128616041979	None	203.558019163802	9.52784745491469e-28	72	FALSE
AW	both	Inverted	Right	100.70833333333333	9.125	2	8.972222222222221	1	9.25	0.2916666666666667	1.4166666666666667	4.772205214138517	0.1527777777777778	0.3472222222222222	0.5694444444444444	0.5416666666666666	1	0.5277777777777778	0.4583333333333333	0.435965345954559	-0.0619616180853343	0.461083964350836	177.454136826801	None	207.745459240084	4.41325504068084e-13	72	FALSE
AW	left	Canonical	Left	118.83333333333333	9.333333333333334	1	8.722222222222221	0	8.777777777777779	0.3888888888888889	1	2.884542270556671	0.6111111111111112	0.3888888888888889	0.4444444444444444	0.6666666666666666	0	0.5	0.5555555555555556	1	0.611869632371924	0.771850987295788	22.0872060958122	None	49.9065941203163	5.01680742426661e-12	18	FALSE
AW	left	Canonical	Right	118.83333333333333	NA	1	NaN	NaN	NaN	NaN	1	NaN	NA	NaN	-99	-99	-99	-99	-99	NA	NA	NA	NA	NA	NA	NA	NA	FALSE
AW	left	Inverted	Left	117.27777777777777	10.333333333333334	1	9.5	1	7.388888888888889	0.5555555555555556	1	3.395961204777753	0.8333333333333334	0.5555555555555556	0.3888888888888889	0.3333333333333333	1	0.5555555555555556	0.6111111111111112	0.911205398813813	0.375354476376984	0.951816569743055	31.9978313306603	message= , call= bobyqa(par = par, fn = ufn, lower = lower, upper = upper, control = mcontrol,     ...)	51.1875275497785	2.34916424660608e-8	18	FALSE
AW	left	Inverted	Right	117.27777777777777	NA	1	NaN	NaN	NaN	NaN	1	NaN	NA	NaN	-99	-99	-99	-99	-99	NA	NA	NA	NA	NA	NA	NA	NA	FALSE
AW	right	Canonical	Left	116.22222222222223	NA	1	NaN	NaN	NaN	NaN	2	NaN	NA	NaN	-99	-99	-99	-99	-99	NA	NA	NA	NA	NA	NA	NA	NA	FALSE
AW	right	Canonical	Right	116.22222222222223	9.777777777777779	1	9.333333333333334	0	8.277777777777779	0.3333333333333333	2	2.6678735185547944	0.4444444444444444	0.3333333333333333	0.6111111111111112	0.8888888888888888	0	0.6111111111111112	0.5	1	0.440081363810548	0.51661574082597606	16.2492291593173	None	49.9065941203163	1.60361813952365e-14	18	FALSE
AW	right	Inverted	Left	107.94444444444444	NA	1	NaN	NaN	NaN	NaN	2	NaN	NA	NaN	-99	-99	-99	-99	-99	NA	NA	NA	NA	NA	NA	NA	NA	FALSE
AW	right	Inverted	Right	107.94444444444444	9	1	9.055555555555555	1	8.666666666666666	0.5	2	2.7733954994433185	-0.05555555555555555	0.5555555555555556	0.5	0.3888888888888889	1	0.6111111111111112	0.4444444444444444	0.873016067127187	0.370459950119143	0.142593344347074	19.5296446236214	None	50.1579085028829	3.16777297623556e-13	18	FALSE
AX	both	Canonical	Left	94.91666666666667	9.333333333333334	2	8.583333333333334	0	9.13888888888889	0.19444444444444445	1.6111111111111112	3.787727142249322	0.75	0.5277777777777778	0.5555555555555556	0.5416666666666666	0	0.4722222222222222	0.5555555555555556	0.591201388107526	0.208694358763531	0.373645039301396	147.510324919828	message= , call= bobyqa(par = par, fn = ufn, lower = lower, upper = upper, control = mcontrol,     ...)	203.518488217492	4.03990262382159e-24	72	FALSE
AX	both	Canonical	Right	94.91666666666667	8.430555555555555	2	8.583333333333334	0	8.25	0.3333333333333333	1.6111111111111112	3.4682419630689765	-0.1527777777777778	0.5277777777777778	0.5555555555555556	0.5416666666666666	0	0.4722222222222222	0.5555555555555556	0.536292348130079	0.191732431230568	0.831043773433877	179.59229358186099	message= , call= bobyqa(par = par, fn = ufn, lower = lower, upper = upper, control = mcontrol,     ...)	209.609499924482	5.7795571385279e-13	72	FALSE
AX	both	Inverted	Left	108.43055555555556	8.069444444444445	2	8.805555555555555	1	8.930555555555555	0.4583333333333333	1.5138888888888888	3.656832592263729	-0.7361111111111112	0.4305555555555556	0.4444444444444444	0.5	1	0.5	0.5	0.709973416955629	0.19443556416901	0.379229897804825	126.637771069123	None	203.582086051901	3.81809777473509e-33	72	FALSE
AX	both	Inverted	Right	108.43055555555556	8.63888888888889	2	8.805555555555555	1	8.319444444444445	0.4166666666666667	1.5138888888888888	3.6258461606387047	-0.16666666666666666	0.4305555555555556	0.4444444444444444	0.5	1	0.5	0.5	0.537596352031454	0.267012470836627	0.453447845892858	164.092077745964	message= , call= bobyqa(par = par, fn = ufn, lower = lower, upper = upper, control = mcontrol,     ...)	206.939110361967	1.84148294096315e-18	72	FALSE
AX	left	Canonical	Left	133.88888888888889	9.055555555555555	1	8.666666666666666	0	8.833333333333334	0.3333333333333333	1	1.908774649389266	0.3888888888888889	0.6111111111111112	0.5	0.6111111111111112	0	0.4444444444444444	0.6111111111111112	1	0.391170029561502	0.613947925200867	18.5514989826457	None	49.9065941203163	1.54892795636136e-13	18	FALSE
AX	left	Canonical	Right	133.88888888888889	NA	1	NaN	NaN	NaN	NaN	1	NaN	NA	NaN	-99	-99	-99	-99	-99	NA	NA	NA	NA	NA	NA	NA	NA	FALSE
AX	left	Inverted	Left	138.94444444444446	9.5	1	9.166666666666666	1	9	0.7222222222222222	1	2.13705268855564	0.3333333333333333	0.3888888888888889	0.3333333333333333	0.4444444444444444	1	0.5555555555555556	0.5	1	0.33412463483129	0.902463815373606	24.5040244674735	None	49.9065941203163	5.38278606588476e-11	18	FALSE
AX	left	Inverted	Right	138.94444444444446	NA	1	NaN	NaN	NaN	NaN	1	NaN	NA	NaN	-99	-99	-99	-99	-99	NA	NA	NA	NA	NA	NA	NA	NA	FALSE
AX	right	Canonical	Left	101	NA	1	NaN	NaN	NaN	NaN	2	NaN	NA	NaN	-99	-99	-99	-99	-99	NA	NA	NA	NA	NA	NA	NA	NA	FALSE
AX	right	Canonical	Right	101	9.666666666666666	1	8.88888888888889	0	7.444444444444445	0.5555555555555556	2	2.0315953875558788	0.7777777777777778	0.6111111111111112	0.5555555555555556	0.5	0	0.5555555555555556	0.4444444444444444	0.925383838187874	0.469292732839224	0.619163713907861	24.5458842733545	message= , call= log(likelihood + 1e-08)	50.1579085028829	4.38287585904713e-11	18	FALSE
AX	right	Inverted	Left	114.77777777777777	NA	1	NaN	NaN	NaN	NaN	2	NaN	NA	NaN	-99	-99	-99	-99	-99	NA	NA	NA	NA	NA	NA	NA	NA	FALSE
AX	right	Inverted	Right	114.77777777777777	8.444444444444445	1	8.944444444444445	1	8.333333333333334	0.6111111111111112	2	2.06061849350024	-0.5	0.3888888888888889	0.6111111111111112	0.4444444444444444	1	0.2777777777777778	0.3888888888888889	0.862742874449957	0.0657302539471188	0.472673401178946	24.8540188939628	message= , call= bobyqa(par = par, fn = ufn, lower = lower, upper = upper, control = mcontrol,     ...)	50.0209109291727	6.78285045785485e-11	18	FALSE
AY	both	Canonical	Left	109.08333333333333	8.083333333333334	2	8.444444444444445	0	8.180555555555555	0.3611111111111111	1.4444444444444444	3.2156770307491467	-0.3611111111111111	0.5972222222222222	0.5833333333333334	0.3888888888888889	0	0.4861111111111111	0.5138888888888888	0.920534776596263	-0.325594906447917	0.64369663217474	100.546543751154	message= , call= log(likelihood + 1e-08)	201.001162852559	2.68348387933345e-43	72	FALSE
AY	both	Canonical	Right	109.08333333333333	8.708333333333334	2	8.444444444444445	0	8.86111111111111	0.6388888888888888	1.4444444444444444	3.488980893903014	0.2638888888888889	0.5972222222222222	0.5833333333333334	0.3888888888888889	0	0.4861111111111111	0.5138888888888888	0.673721039768586	-0.132632767483263	0.587467751270556	148.56938925879	None	205.588369614672	1.48318631938797e-24	72	FALSE
AY	both	Inverted	Left	110.05555555555556	7.875	2	8.36111111111111	1	7.138888888888889	0.7083333333333334	1.5694444444444444	3.4514863208745132	-0.4861111111111111	0.4722222222222222	0.5555555555555556	0.5	1	0.4027777777777778	0.5138888888888888	0.811400064496104	-0.226946838344839	0.753503877227927	133.736428119838	message= , call= bobyqa(par = par, fn = ufn, lower = lower, upper = upper, control = mcontrol,     ...)	204.080679988104	2.68536677821602e-30	72	FALSE
AY	both	Inverted	Right	110.05555555555556	8.291666666666666	2	8.36111111111111	1	8.291666666666666	0.75	1.5694444444444444	3.1457572640556464	-0.06944444444444445	0.4722222222222222	0.5555555555555556	0.5	1	0.4027777777777778	0.5138888888888888	0.485128875313316	-0.266066316817319	0.569479814971473	174.391015675827	message= , call= bobyqa(par = par, fn = ufn, lower = lower, upper = upper, control = mcontrol,     ...)	206.051912118265	1.14621750170145e-13	72	FALSE
AY	left	Canonical	Left	115.44444444444444	8.333333333333334	1	8.555555555555555	0	7.777777777777778	0.2777777777777778	1	2.0474831196673526	-0.2222222222222222	0.4444444444444444	0.2777777777777778	0.6111111111111112	0	0.5555555555555556	0.3888888888888889	0.931417381774444	-0.0612342018693506	0.462161760353266	20.1139044063056	message= , call= log(likelihood + 1e-08)	49.9065941203163	7.2081294535847e-13	18	FALSE
AY	left	Canonical	Right	115.44444444444444	NA	1	NaN	NaN	NaN	NaN	1	NaN	NA	NaN	-99	-99	-99	-99	-99	NA	NA	NA	NA	NA	NA	NA	NA	FALSE
AY	left	Inverted	Left	76.83333333333333	8.38888888888889	1	8.38888888888889	1	8.166666666666666	0.5555555555555556	1	2.1362272306675245	0	0.3888888888888889	0.3333333333333333	0.3888888888888889	1	0.6111111111111112	0.6666666666666666	0.690066442668486	-0.235737399176003	0.879815138035077	39.1157368783272	message= , call= bobyqa(par = par, fn = ufn, lower = lower, upper = upper, control = mcontrol,     ...)	50.5515390616466	4.29495059358887e-5	18	FALSE
AY	left	Inverted	Right	76.83333333333333	NA	1	NaN	NaN	NaN	NaN	1	NaN	NA	NaN	-99	-99	-99	-99	-99	NA	NA	NA	NA	NA	NA	NA	NA	FALSE
AY	right	Canonical	Left	118.83333333333333	NA	1	NaN	NaN	NaN	NaN	2	NaN	NA	NaN	-99	-99	-99	-99	-99	NA	NA	NA	NA	NA	NA	NA	NA	FALSE
AY	right	Canonical	Right	118.83333333333333	8.38888888888889	1	8.555555555555555	0	8.055555555555555	0.3888888888888889	2	2.071132834558537	-0.16666666666666666	0.5555555555555556	0.6111111111111112	0.6111111111111112	0	0.5	0.3333333333333333	0.865386983816531	0.00410375064611897	0.42945222886103	23.2810935200496	message= , call= bobyqa(par = par, fn = ufn, lower = lower, upper = upper, control = mcontrol,     ...)	50.0243771359727	1.44379410291138e-11	18	FALSE
AY	right	Inverted	Left	114.33333333333333	NA	1	NaN	NaN	NaN	NaN	2	NaN	NA	NaN	-99	-99	-99	-99	-99	NA	NA	NA	NA	NA	NA	NA	NA	FALSE
AY	right	Inverted	Right	114.33333333333333	7.944444444444445	1	8.222222222222221	1	7.888888888888889	0.8333333333333334	2	1.8288135099986296	-0.2777777777777778	0.4444444444444444	0.5	0.6111111111111112	1	0.5	0.3333333333333333	1	-0.277554126046338	0.886712004458699	24.2652136453701	message= , call= bobyqa(par = par, fn = ufn, lower = lower, upper = upper, control = mcontrol,     ...)	49.9065941203163	4.25842970184714e-11	18	FALSE
AZ	both	Canonical	Left	106.61111111111111	8.88888888888889	2	8.61111111111111	0	7.208333333333333	0.125	1.5833333333333333	3.6637467733758564	0.2777777777777778	0.6944444444444444	0.4861111111111111	0.5555555555555556	0	0.4722222222222222	0.5555555555555556	0.846022164393857	0.0532254943487153	0.406123186654728	97.3565201370349	None	202.081121769635	3.83020190097315e-45	72	FALSE
AZ	both	Canonical	Right	106.61111111111111	9.222222222222221	2	8.61111111111111	0	8.833333333333334	0.8055555555555556	1.5833333333333333	3.4595767427926045	0.6111111111111112	0.6944444444444444	0.4861111111111111	0.5555555555555556	0	0.4722222222222222	0.5555555555555556	0.555798250644459	-0.161992084804381	0.402160140744902	158.651694453752	None	207.853734993296	3.424679273492e-21	72	FALSE
AZ	both	Inverted	Left	111.34722222222223	8.402777777777779	2	8.430555555555555	1	7.986111111111111	0.4166666666666667	1.5416666666666667	3.634296494554999	-0.027777777777777776	0.5138888888888888	0.3611111111111111	0.4583333333333333	1	0.4722222222222222	0.5694444444444444	0.761177496559854	0.348187148861671	0.749456566889101	140.822409078217	message= , call= bobyqa(par = par, fn = ufn, lower = lower, upper = upper, control = mcontrol,     ...)	202.635851599812	1.27711737393287e-26	72	FALSE
AZ	both	Inverted	Right	111.34722222222223	8.26388888888889	2	8.430555555555555	1	8.916666666666666	0.75	1.5416666666666667	3.7177980912216904	-0.16666666666666666	0.5138888888888888	0.3611111111111111	0.4583333333333333	1	0.4722222222222222	0.5694444444444444	0.523370724365604	0.139991415686778	0.450626070805848	162.174102972874	None	204.109791214657	4.53312266017623e-18	72	FALSE
AZ	left	Canonical	Left	113.11111111111111	8.777777777777779	1	8.444444444444445	0	9.11111111111111	0	1	2.279825747168717	0.3333333333333333	0.5555555555555556	0.3888888888888889	0.4444444444444444	0	0.5	0.5555555555555556	1	0.346319633286204	0.508649676942923	15.7263150425469	message= , call= bobyqa(par = par, fn = ufn, lower = lower, upper = upper, control = mcontrol,     ...)	49.9065941203163	9.57757137092744e-15	18	FALSE
AZ	left	Canonical	Right	113.11111111111111	NA	1	NaN	NaN	NaN	NaN	1	NaN	NA	NaN	-99	-99	-99	-99	-99	NA	NA	NA	NA	NA	NA	NA	NA	FALSE
AZ	left	Inverted	Left	108.27777777777777	9.555555555555555	1	8.555555555555555	1	6.777777777777778	0.5	1	2.066031181556658	1	0.2777777777777778	0.5	0.3888888888888889	1	0.5555555555555556	0.6111111111111112	0.706706558151137	0.493001702954337	0.626209488063248	36.4436412837609	None	51.4388420146308	1.38648785139334e-6	18	FALSE
AZ	left	Inverted	Right	108.27777777777777	NA	1	NaN	NaN	NaN	NaN	1	NaN	NA	NaN	-99	-99	-99	-99	-99	NA	NA	NA	NA	NA	NA	NA	NA	FALSE
AZ	right	Canonical	Left	101.55555555555556	NA	1	NaN	NaN	NaN	NaN	2	NaN	NA	NaN	-99	-99	-99	-99	-99	NA	NA	NA	NA	NA	NA	NA	NA	FALSE
AZ	right	Canonical	Right	101.55555555555556	8.444444444444445	1	7.888888888888889	0	9.277777777777779	0.2777777777777778	2	2.7367310426109017	0.5555555555555556	0.4444444444444444	0.4444444444444444	0.4444444444444444	0	0.5555555555555556	0.4444444444444444	0.726796180012786	0.0890821150256057	0.364879950485256	29.4691335120711	None	50.3990705035959	4.29644531227152e-9	18	FALSE
AZ	right	Inverted	Left	107.22222222222223	NA	1	NaN	NaN	NaN	NaN	2	NaN	NA	NaN	-99	-99	-99	-99	-99	NA	NA	NA	NA	NA	NA	NA	NA	FALSE
AZ	right	Inverted	Right	107.22222222222223	7.833333333333333	1	7.833333333333333	1	9.722222222222221	0.8333333333333334	2	2.347828764390013	0	0.5	0.2777777777777778	0.6666666666666666	1	0.5	0.4444444444444444	0.924508022115715	0.407491328787189	0.612284327098108	24.7533665443883	message= , call= log(likelihood + 1e-08)	50.4943806572184	3.86180426831912e-11	18	FALSE
BA	both	Canonical	Left	110.54166666666667	8.833333333333334	2	8.666666666666666	0	8.180555555555555	0.1388888888888889	1.4722222222222223	4.264711253458801	0.16666666666666666	0.5833333333333334	0.4722222222222222	0.5555555555555556	0	0.5833333333333334	0.4861111111111111	0.794486522932343	0.124961863551795	0.459211480895965	117.339351868691	message= , call= bobyqa(par = par, fn = ufn, lower = lower, upper = upper, control = mcontrol,     ...)	204.352508650273	1.7194441909333e-37	72	FALSE
BA	both	Canonical	Right	110.54166666666667	8.625	2	8.666666666666666	0	8.180555555555555	0.3472222222222222	1.4722222222222223	4.420998461569373	-0.041666666666666664	0.5833333333333334	0.4722222222222222	0.5555555555555556	0	0.5833333333333334	0.4861111111111111	0.538619358990083	0.228644786594599	0.36780756610743	155.637166772634	None	203.203499722262	1.72903674678025e-20	72	FALSE
BA	both	Inverted	Left	110.22222222222223	8.291666666666666	2	8.458333333333334	1	6.916666666666667	0.5	1.5555555555555556	4.37590106090344	-0.16666666666666666	0.4027777777777778	0.4861111111111111	0.4166666666666667	1	0.4861111111111111	0.4027777777777778	0.711988582256676	0.169927576516826	0.788280935530705	153.207773546322	None	206.001982080295	9.76272259759069e-23	72	FALSE
BA	both	Inverted	Right	110.22222222222223	8.11111111111111	2	8.458333333333334	1	7.930555555555555	0.4305555555555556	1.5555555555555556	4.191505036416654	-0.3472222222222222	0.4027777777777778	0.4861111111111111	0.4166666666666667	1	0.4861111111111111	0.4027777777777778	0.316055882213307	0.182163777282834	0.749789006326693	199.110819672837	message= , call= bobyqa(par = par, fn = ufn, lower = lower, upper = upper, control = mcontrol,     ...)	211.170868462999	2.35785229902518e-5	72	FALSE
BA	left	Canonical	Left	109.27777777777777	9.555555555555555	1	9.5	0	7.666666666666667	0.1111111111111111	1	2.6659578917767957	0.05555555555555555	0.5	0.3888888888888889	0.6111111111111112	0	0.5	0.5	1	0.0573633234838411	0.452989950648302	14.0196726514498	None	49.9065941203163	1.77975575053806e-15	18	FALSE
