subject	targetSide	orientation	stream	trial	respSP	numTargets	targetSP	targetOrient	resp	respOrient	respOrder	allRTs	SPE	efficacy	latency	precision	val	warnings	valGuessing	pLRtest	exclude
AA	Both	Canonical	Left	93.05555555555556	8.416666666666666	2	8.583333333333334	0	6.597222222222222	0.1527777777777778	1.5694444444444444	4.25859357212514	-0.16666666666666666	0.709262809145072	0.158402743342888	0.357778034100041	124.858675982939	message= , call= bobyqa(par = par, fn = ufn, lower = lower, upper = upper, control = mcontrol,     ...)	204.424731650229	2.82113535714697e-34	FALSE
AA	Both	Canonical	Right	93.05555555555556	8.26388888888889	2	8.583333333333334	0	8.097222222222221	0.6388888888888888	1.5694444444444444	3.8319604732917267	-0.3194444444444444	0.640914973524493	0.25364051100362	0.397490392073002	147.21410768579	message= , call= bobyqa(par = par, fn = ufn, lower = lower, upper = upper, control = mcontrol,     ...)	209.114377185789	1.17171591224522e-26	FALSE
AA	Both	Inverted	Left	119.375	8.402777777777779	2	8.23611111111111	1	7.847222222222222	0.5	1.5277777777777777	3.780522021055554	0.16666666666666666	0.834279612890559	0.47525514449829	0.560873774665698	113.691477708992	message= , call= bobyqa(par = par, fn = ufn, lower = lower, upper = upper, control = mcontrol,     ...)	200.363425961354	2.41395706599214e-37	FALSE
AA	Both	Inverted	Right	119.375	7.833333333333333	2	8.23611111111111	1	7.666666666666667	0.7083333333333334	1.5277777777777777	3.655207763527718	-0.4027777777777778	0.606377053090464	0.119950068711483	0.42634709976945	150.628498090372	None	206.401450305513	5.10063036216389e-24	FALSE
AA	Left	Canonical	Left	116.05555555555556	9.222222222222221	1	8.11111111111111	0	9.11111111111111	0.2777777777777778	1	2.355223732722152	1.1111111111111112	0.862731492552624	0.200457972310517	0.431440828299085	25.174250609496	None	51.2100005198123	2.89181141106061e-11	FALSE
AA	Left	Inverted	Left	100.94444444444444	9	1	8.777777777777779	1	9	0.6111111111111112	1	2.1992489160558963	0.2222222222222222	0.784331911131766	0.447695061723054	0.640630269525792	31.8576509217976	None	49.9637525247445	6.75334838476464e-8	FALSE
AA	Right	Canonical	Right	122.77777777777777	7.833333333333333	1	7.777777777777778	0	8.88888888888889	0.3888888888888889	2	2.106521543111032	0.05555555555555555	0.873016147640457	0.399619327047948	0.145719230709876	21.3653804647672	None	50.7175241365327	1.11177924849742e-12	FALSE
AA	Right	Inverted	Right	112.5	9.88888888888889	1	9.833333333333334	1	7.055555555555555	0.8888888888888888	2	2.252596309389042	0.05555555555555555	0.793902379023677	0.216693955899216	0.437467423441428	27.9997762682066	message= , call= bobyqa(par = par, fn = ufn, lower = lower, upper = upper, control = mcontrol,     ...)	50.0243771359727	1.47329613695192e-9	FALSE
AB	Both	Canonical	Left	116.625	8.833333333333334	2	8.75	0	6.555555555555555	0.06944444444444445	1.5555555555555556	3.7090242058609673	0.08333333333333333	0.69309829545819	0.104060004273867	0.455987745742789	135.384115453901	None	203.668110083538	2.07681731844909e-29	FALSE
AB	Both	Canonical	Right	116.625	8.819444444444445	2	8.75	0	8.541666666666666	0.1388888888888889	1.5555555555555556	3.5975080119444303	0.06944444444444445	0.834082030367974	0.334649638032214	0.543625855322739	112.661232854467	None	201.146184238329	3.97921347900137e-38	FALSE
AB	Both	Inverted	Left	103.58333333333333	8.51388888888889	2	8.791666666666666	1	6.375	0.4027777777777778	1.4166666666666667	3.6799102931946033	-0.2777777777777778	0.729174881572609	-0.16238675871063	0.455771608090181	129.07224554746	None	203.762457481947	3.58441816434458e-32	FALSE
AB	Both	Inverted	Right	103.58333333333333	9.097222222222221	2	8.791666666666666	1	7.875	0.2916666666666667	1.4166666666666667	4.025149976208417	0.3055555555555556	0.725882208870795	0.458607903673114	0.467426438231716	132.074726206485	message= , call= bobyqa(par = par, fn = ufn, lower = lower, upper = upper, control = mcontrol,     ...)	203.707411595565	7.47017829565204e-31	FALSE
AB	Left	Canonical	Left	111.83333333333333	8.5	1	8.833333333333334	0	7.055555555555555	0.1111111111111111	1	2.4887732891658945	-0.3333333333333333	0.863219376389635	-0.075802942260924	0.358981268851223	23.2375318682658	None	52.103817817653	1.79274272545307e-12	FALSE
AB	Left	Inverted	Left	106.72222222222223	8.722222222222221	1	8.777777777777779	1	7.666666666666667	0.7222222222222222	1	2.2534674902223437	-0.05555555555555555	0.862742980802872	0.0657302823413896	0.472673446703984	26.1384166948699	None	51.3053106734348	6.78283752842809e-11	FALSE
AB	Right	Canonical	Right	104.05555555555556	8.88888888888889	1	8.61111111111111	0	8.61111111111111	0.1111111111111111	2	2.17603487672184	0.2777777777777778	1	0.412950364151975	0.147677100116176	10.6351600787165	message= , call= bobyqa(par = par, fn = ufn, lower = lower, upper = upper, control = mcontrol,     ...)	49.9065941203163	6.30309436342344e-17	FALSE
AB	Right	Inverted	Right	98.55555555555556	7.388888888888889	1	7.611111111111111	1	7.777777777777778	0.7777777777777778	2	4.178648564666623	-0.2222222222222222	0.790862027708201	0.352565173458666	0.487852755212418	29.2237979263744	message= , call= bobyqa(par = par, fn = ufn, lower = lower, upper = upper, control = mcontrol,     ...)	49.9065941203163	5.46987861148951e-9	FALSE
AC	Both	Canonical	Left	108.29166666666667	8.069444444444445	2	8.38888888888889	0	8.652777777777779	0.1388888888888889	1.4722222222222223	3.8089174298748834	-0.3194444444444444	0.763098224262771	-0.079242209201187	0.436568559963354	118.571760728109	None	202.130892200466	5.3303791264519e-36	FALSE
AC	Both	Canonical	Right	108.29166666666667	7.958333333333333	2	8.38888888888889	0	9.041666666666666	0.1527777777777778	1.4722222222222223	3.8916148451665626	-0.4305555555555556	0.67542264648527806	0.115527755248022	0.379325775198105	130.907258576209	None	202.701531878467	6.36263236138517e-31	FALSE
AC	Both	Inverted	Left	113.98611111111111	8.402777777777779	2	8.51388888888889	1	7.569444444444445	0.6111111111111112	1.4305555555555556	3.5751739619585754	-0.1111111111111111	0.879696592037984	-4.21894586566384e-6	0.50150018276781	99.4094402873341	None	201.06720129417	8.10477948352188e-44	FALSE
AC	Both	Inverted	Right	113.98611111111111	8.319444444444445	2	8.51388888888889	1	8.76388888888889	0.4861111111111111	1.4305555555555556	3.990531023153027	-0.19444444444444445	0.692905126714396	0.146679500843386	0.443053493927391	133.706382107636	None	202.72601185292	1.00048297356023e-29	FALSE
AC	Left	Canonical	Left	110.83333333333333	9.666666666666666	1	9.11111111111111	0	8.61111111111111	0.1111111111111111	1	2.2285317865553225	0.5555555555555556	0.910993366383503	0.131839685842606	0.815124479240399	29.7819077775509	message= , call= log(likelihood + 1e-08)	51.1875275497785	2.69890214462288e-9	FALSE
AC	Left	Inverted	Left	110.11111111111111	8.88888888888889	1	9.722222222222221	1	9.222222222222221	0.7777777777777778	1	2.2783801807773774	-0.8333333333333334	0.809523908552158	-0.404115701322847	0.148900153761164	24.977312637199802	None	50.1579085028829	6.69228634912811e-11	FALSE
AC	Right	Canonical	Right	88.05555555555556	8	1	7.666666666666667	0	9.555555555555555	0.2222222222222222	2	2.6575596495003992	0.3333333333333333	0.865386895429297	0.00410366610303749	0.4294521698665	23.1633106329675	None	49.9065941203163	1.44379428519855e-11	FALSE
AC	Right	Inverted	Right	103.88888888888889	8.38888888888889	1	9.222222222222221	1	9	0.5555555555555556	2	2.1419265532784064	-0.8333333333333334	0.729810584745889	0.280151844221826	0.651857426188489	35.1015425929748	None	50.5813920283899	8.66820070576818e-7	FALSE
AD	Both	Canonical	Left	113.70833333333333	8.222222222222221	2	8.51388888888889	0	7.875	0.3055555555555556	1.4861111111111112	3.366819585902855	-0.2916666666666667	0.582555604174025	0.34154652004315	0.462995005583077	160.382875669898	None	208.710835716771	8.13604579262124e-21	FALSE
AD	Both	Canonical	Right	113.70833333333333	8.88888888888889	2	8.51388888888889	0	7.555555555555555	0.6805555555555556	1.4861111111111112	3.8741689925139124	0.375	0.392805087012964	0.532857288092904	0.779689190966266	192.819546684493	message= , call= bobyqa(par = par, fn = ufn, lower = lower, upper = upper, control = mcontrol,     ...)	210.534086668569	9.88712144567243e-8	FALSE
AD	Both	Inverted	Left	108.63888888888889	8.708333333333334	2	8.430555555555555	1	7.888888888888889	0.5138888888888888	1.4861111111111112	3.4864331341389314	0.2777777777777778	0.365079483006472	0.499999984508983	0.152458169527296	187.91353275228	None	210.335685767932	9.98518126254144e-10	FALSE
AD	Both	Inverted	Right	108.63888888888889	8.51388888888889	2	8.430555555555555	1	7.125	0.625	1.4861111111111112	3.560745505555486	0.08333333333333333	0.361407837337448	0.337218529521965	0.521827960471475	192.116218538518	None	212.056752031898	1.12918910065413e-8	FALSE
AD	Left	Canonical	Left	122.44444444444444	8.5	1	8.38888888888889	0	8.11111111111111	0.5555555555555556	1	2.5164831801109053	0.1111111111111111	1	0.11130623509608	1.11325330008331	28.0489941220858	message= , call= bobyqa(par = par, fn = ufn, lower = lower, upper = upper, control = mcontrol,     ...)	49.9065941203163	1.73474421416777e-9	FALSE
AD	Left	Inverted	Left	126.55555555555556	9.333333333333334	1	8.88888888888889	1	6.944444444444445	0.7777777777777778	1	2.049692098332849	0.4444444444444444	0.74603197956476	0.587010552749602	0.146733239379565	28.7921344231145	message= , call= bobyqa(par = par, fn = ufn, lower = lower, upper = upper, control = mcontrol,     ...)	50.2320164592125	2.60999299261848e-9	FALSE
AD	Right	Canonical	Right	86.83333333333333	7.833333333333333	1	8.11111111111111	0	8.5	0.2777777777777778	2	2.056465064666352	-0.2777777777777778	0.45299387751197	-1.87488168047954e-7	0.29888136439348	41.3033730707292	message= , call= bobyqa(par = par, fn = ufn, lower = lower, upper = upper, control = mcontrol,     ...)	51.9347513426908	9.2842805822507e-5	FALSE
AD	Right	Inverted	Right	76.77777777777777	9.055555555555555	1	9.11111111111111	1	6.444444444444445	0.6111111111111112	2	2.34064306527782	-0.05555555555555555	0.873015981666964	0.423942473067989	0.152594536918462	21.4944715083439	None	49.9065941203163	2.80174990334343e-12	FALSE
AE	Both	Canonical	Left	104.40277777777777	8.694444444444445	2	8.666666666666666	0	7.958333333333333	0.1388888888888889	1.625	3.503238705486183	0.027777777777777776	0.914529577887334	-0.0231010069702982	0.298238654923399	58.965959649737	message= , call= log(likelihood + 1e-08)	200.396484552561	5.0904643599223e-61	FALSE
AE	Both	Canonical	Right	104.40277777777777	8.375	2	8.666666666666666	0	8.86111111111111	0.16666666666666666	1.625	3.0084246639585723	-0.2916666666666667	0.84615390138626	-0.0217835068523211	0.32518029235132	83.5491657219848	None	200.943449126943	1.27475608946101e-50	FALSE
AE	Both	Inverted	Left	105.40277777777777	8.13888888888889	2	8.402777777777779	1	8.73611111111111	0.7777777777777778	1.5138888888888888	3.187837639402662	-0.2638888888888889	0.829058054613204	0.103753608338867	0.338778411508449	91.8389180726568	message= , call= bobyqa(par = par, fn = ufn, lower = lower, upper = upper, control = mcontrol,     ...)	201.375417219777	3.18497744903241e-47	FALSE
AE	Both	Inverted	Right	105.40277777777777	8.291666666666666	2	8.402777777777779	1	9.319444444444445	0.5416666666666666	1.5138888888888888	3.2330011695555894	-0.1111111111111111	0.675965459103565	0.0399315065790871	0.451071391670811	139.304893125267	message= , call= bobyqa(par = par, fn = ufn, lower = lower, upper = upper, control = mcontrol,     ...)	205.218722307571	2.18367878740133e-28	FALSE
AE	Left	Canonical	Left	98.16666666666667	8.777777777777779	1	8.777777777777779	0	9	0.05555555555555555	1	1.8890255283889321	0	1	-3.52133264832318e-9	0.313821311413357	7.66530314453696	message= , call= bobyqa(par = par, fn = ufn, lower = lower, upper = upper, control = mcontrol,     ...)	49.9065941203163	3.35132388975072e-18	FALSE
AE	Left	Inverted	Left	112.27777777777777	8.555555555555555	1	8.38888888888889	1	9.11111111111111	0.9444444444444444	1	1.953253098666917	0.16666666666666666	1	0.174912263805918	0.42067614794097	13.1533391402109	message= , call= bobyqa(par = par, fn = ufn, lower = lower, upper = upper, control = mcontrol,     ...)	49.9065941203163	7.57110519684176e-16	FALSE
AE	Right	Canonical	Right	109.27777777777777	8.833333333333334	1	8.833333333333334	0	7.833333333333333	0.05555555555555555	2	1.6077851383888628	0	1	5.06024226351735e-9	0.313821313851779	7.66530314453696	message= , call= bobyqa(par = par, fn = ufn, lower = lower, upper = upper, control = mcontrol,     ...)	49.9065941203163	3.35132388975069e-18	FALSE
AE	Right	Inverted	Right	143.05555555555554	8.722222222222221	1	8.277777777777779	1	8.5	0.8888888888888888	2	1.587303554778676	0.4444444444444444	0.794580313580945	0.150302320217137	0.402111960715678	27.0845898384393	None	50.2320164592125	4.9090921632099e-10	FALSE
AG	Both	Canonical	Left	110.43055555555556	9.027777777777779	2	8.444444444444445	0	7.777777777777778	0.19444444444444445	1.4166666666666667	3.5973950943610666	0.5833333333333334	0.863155742900662	0.273557202902749	0.308285074493208	88.2904521506497	message= , call= bobyqa(par = par, fn = ufn, lower = lower, upper = upper, control = mcontrol,     ...)	202.549024354319	2.89347814844315e-49	FALSE
AG	Both	Canonical	Right	110.43055555555556	8.319444444444445	2	8.444444444444445	0	7.555555555555555	0.5833333333333334	1.4166666666666667	4.035221616291387	-0.125	0.744812916536538	0.214335857962054	0.441364643747413	129.293891350374	None	207.526887823498	1.06106230598894e-33	FALSE
AG	Both	Inverted	Left	113.88888888888889	8.472222222222221	2	8.541666666666666	1	7.75	0.6527777777777778	1.4166666666666667	3.6206845117773505	-0.06944444444444445	0.778657950981143	0.188504221423432	0.42673450344509	118.245766693206	None	204.696878562378	3.00669841090152e-37	FALSE
AG	Both	Inverted	Right	113.88888888888889	8.583333333333334	2	8.541666666666666	1	8.069444444444445	0.7083333333333334	1.4166666666666667	4.029534203693907	0.041666666666666664	0.83125148443367	0.316453918626552	0.402581390091435	103.299624302703	None	201.260754486947	3.20777289763833e-42	FALSE
AG	Left	Canonical	Left	113.16666666666667	8.333333333333334	1	8.61111111111111	0	6.722222222222222	0.05555555555555555	1	2.423515445666352	-0.2777777777777778	0.873016001632368	0.344192447632915	0.131580340042066	17.585412085609	None	49.9065941203163	5.98214190615526e-14	FALSE
AG	Left	Inverted	Left	97.38888888888889	8.666666666666666	1	8.38888888888889	1	8.777777777777779	0.9444444444444444	1	2.671586195112064	0.2777777777777778	0.746031332373085	0.352277062274257	0.0914880038991706	24.098863782245	message= , call= bobyqa(par = par, fn = ufn, lower = lower, upper = upper, control = mcontrol,     ...)	50.3120591484245	2.42956130978973e-11	FALSE
AG	Right	Canonical	Right	89.22222222222223	8.555555555555555	1	8.5	0	7.444444444444445	0.1111111111111111	2	2.277930932165974	0.05555555555555555	1	0.293140412602932	0.129837527242073	3.86206444221462	message= , call= bobyqa(par = par, fn = ufn, lower = lower, upper = upper, control = mcontrol,     ...)	49.9065941203163	7.79471833958504e-20	FALSE
AG	Right	Inverted	Right	104.94444444444444	7.777777777777778	1	7.611111111111111	1	8.444444444444445	0.8333333333333334	2	2.0834875698892574	0.16666666666666666	1	0.174912275857488	0.420676140829826	13.1533391402109	message= , call= bobyqa(par = par, fn = ufn, lower = lower, upper = upper, control = mcontrol,     ...)	49.9065941203163	7.57110519684165e-16	FALSE
AH	Both	Canonical	Left	104.31944444444444	8.375	2	8.63888888888889	0	7.416666666666667	0.2916666666666667	1.4583333333333333	4.203569374069856	-0.2638888888888889	0.812837597440403	0.0389907749421955	0.399841004923173	105.100764836049	None	203.336079693687	2.44189820672291e-42	FALSE
AH	Both	Canonical	Right	104.31944444444444	8.458333333333334	2	8.63888888888889	0	8.444444444444445	0.8055555555555556	1.4583333333333333	4.26732458197249	-0.18055555555555555	0.0952381127924632	0.346255424543429	0.139622344819842	213.861125514381	message= , call= bobyqa(par = par, fn = ufn, lower = lower, upper = upper, control = mcontrol,     ...)	216.668248523633	0.131962897610505	FALSE
AH	Both	Inverted	Left	108.20833333333333	8.680555555555555	2	8.652777777777779	1	8.277777777777779	0.5138888888888888	1.4305555555555556	4.122712135430953	0.027777777777777776	0.811322492507901	0.234659944756589	0.405610440678572	109.961763070174	None	204.412448454724	1.05421019668039e-40	FALSE
AH	Both	Inverted	Right	108.20833333333333	7.652777777777778	2	8.652777777777779	1	8.625	0.7777777777777778	1.4305555555555556	4.4481285441534055	-1	0.111111128638822	-0.271161372258236	0.0362788271756966	210.350293228893	None	215.053262697483	0.0243533558390872	FALSE
AH	Left	Canonical	Left	115.44444444444444	9.5	1	8.722222222222221	0	8.11111111111111	0.2777777777777778	1	2.5705887384416806	0.7777777777777778	0.86321912540755	-0.0758030860993228	0.358981197009711	22.3437182192928	message= , call= bobyqa(par = par, fn = ufn, lower = lower, upper = upper, control = mcontrol,     ...)	51.2100005198123	1.79274915737424e-12	FALSE
AH	Left	Inverted	Left	85.72222222222223	9.11111111111111	1	8.277777777777779	1	8.333333333333334	0.7777777777777778	1	2.873519234779249	0.8333333333333334	0.923845412107161	0.460389201708115	0.617445851577251	24.6098892682858	message= , call= bobyqa(par = par, fn = ufn, lower = lower, upper = upper, control = mcontrol,     ...)	50.2320164592125	4.33964282851472e-11	FALSE
AH	Right	Canonical	Right	139.16666666666666	7.722222222222222	1	8	0	7.666666666666667	0.8888888888888888	2	2.434012136944754	-0.2777777777777778	0.547295047937469	0.366974843570016	0.568537318565655	42.0180887940272	None	51.9620900841096	1.79059740019734e-4	FALSE
AH	Right	Inverted	Right	111.55555555555556	8.833333333333334	1	8.555555555555555	1	7.111111111111111	0.8888888888888888	2	3.1028726068883166	0.2777777777777778	0.655399688109136	0.739476448752596	0.449701905123807	37.3655266123776	message= , call= bobyqa(par = par, fn = ufn, lower = lower, upper = upper, control = mcontrol,     ...)	52.6064467427861	1.09274253716216e-6	FALSE
AI	Both	Canonical	Left	106.63888888888889	9.25	2	8.458333333333334	0	7.472222222222222	0.16666666666666666	1.4444444444444444	4.433788816235796	0.7916666666666666	0.642560788717976	0.205486114003279	0.434152457471365	147.480373826837	None	208.055763945772	4.36100798490452e-26	FALSE
AI	Both	Canonical	Right	106.63888888888889	8.805555555555555	2	8.458333333333334	0	9.027777777777779	0.3888888888888889	1.4444444444444444	4.541697480513701	0.3472222222222222	0.854094078135151	0.26152504529321	0.5449458538749	108.947590598116	None	200.974374180442	1.17497481355856e-39	FALSE
AI	Both	Inverted	Left	115.97222222222223	9.208333333333334	2	8.694444444444445	1	8.652777777777779	0.2638888888888889	1.5	4.250718546860804	0.5138888888888888	0.511667899083571	0.410132524725903	0.629852268821835	179.816424906511	message= , call= bobyqa(par = par, fn = ufn, lower = lower, upper = upper, control = mcontrol,     ...)	212.649307187242	3.61358958532556e-14	FALSE
AI	Both	Inverted	Right	115.97222222222223	8.555555555555555	2	8.694444444444445	1	7.055555555555555	0.7083333333333334	1.5	4.09815200029152	-0.1388888888888889	0.766143463314616	0.18688882683714	0.517635853091744	127.919464473793	message= , call= bobyqa(par = par, fn = ufn, lower = lower, upper = upper, control = mcontrol,     ...)	204.780203232755	4.14868783075785e-33	FALSE
AI	Left	Canonical	Left	97.05555555555556	10.555555555555555	1	9.555555555555555	0	7.888888888888889	0.1111111111111111	1	2.6776986875568887	1	0.850013732616745	0.429895000291351	0.611895100489911	29.0584097127119	None	50.6503848861626	2.24933588330694e-9	FALSE
AI	Left	Inverted	Left	116.94444444444444	9.11111111111111	1	9.11111111111111	1	7.222222222222222	0.3888888888888889	1	2.9940191256674655	0	0.809063161115701	0.828562903041461	0.628472544159509	32.7020269772381	message= , call= bobyqa(par = par, fn = ufn, lower = lower, upper = upper, control = mcontrol,     ...)	52.1038174176535	1.91017811271209e-8	FALSE
AI	Right	Canonical	Right	83.94444444444444	8.444444444444445	1	8.722222222222221	0	7.111111111111111	0.3333333333333333	2	3.1212661616114525	-0.2777777777777778	0.873016015504951	0.398196082265141	0.147785240939478	20.6116101676082	None	49.9637525247445	1.11178068598629e-12	FALSE
AI	Right	Inverted	Right	113.61111111111111	8.722222222222221	1	8.333333333333334	1	8.166666666666666	0.8333333333333334	2	2.7649612158331567	0.3888888888888889	0.921685920803003	0.165300337302271	0.711966759538994	26.2924417774882	message= , call= bobyqa(par = par, fn = ufn, lower = lower, upper = upper, control = mcontrol,     ...)	49.9065941203163	3.10788618229811e-10	FALSE
AJ	Both	Canonical	Left	94.13888888888889	8.36111111111111	2	8.597222222222221	0	8.01388888888889	0.3333333333333333	1.5972222222222223	3.6103199625839704	-0.2361111111111111	0.829308428475881	0.0369451502409987	0.396451944132222	99.4854361694045	message= , call= bobyqa(par = par, fn = ufn, lower = lower, upper = upper, control = mcontrol,     ...)	201.774862481608	4.32259500262602e-44	FALSE
AJ	Both	Canonical	Right	94.13888888888889	8.51388888888889	2	8.597222222222221	0	8.26388888888889	0.4305555555555556	1.5972222222222223	3.365762949180761	-0.08333333333333333	0.64714222798942	-0.03443998407479	0.516576831476984	146.164731829203	message= , call= bobyqa(par = par, fn = ufn, lower = lower, upper = upper, control = mcontrol,     ...)	203.069034321412	1.66176643695785e-24	FALSE
AJ	Both	Inverted	Left	117.5	7.930555555555555	2	8.458333333333334	1	8.208333333333334	0.7777777777777778	1.4861111111111112	3.4173991010966347	-0.5277777777777778	0.709331291917715	-2.89223508536852e-4	0.409502248821725	130.69873050772	message= , call= bobyqa(par = par, fn = ufn, lower = lower, upper = upper, control = mcontrol,     ...)	206.456853844765	1.24071836462348e-32	FALSE
AJ	Both	Inverted	Right	117.5	8.88888888888889	2	8.458333333333334	1	8.125	0.7083333333333334	1.4861111111111112	3.489348299638449	0.4305555555555556	0.452967420398095	0.0317552419577611	0.430614239409284	178.908522929343	message= , call= bobyqa(par = par, fn = ufn, lower = lower, upper = upper, control = mcontrol,     ...)	212.794568372597	1.28001470072469e-14	FALSE
AJ	Left	Canonical	Left	90.11111111111111	9.11111111111111	1	8.833333333333334	0	8.333333333333334	0.3333333333333333	1	2.2424341380558164	0.2777777777777778	0.726796058664305	-0.0890820421373662	0.364879918658068	29.9211180890326	None	50.8510554777286	4.2964436447921e-9	FALSE
AJ	Left	Inverted	Left	112.38888888888889	8.055555555555555	1	7.944444444444445	1	7.777777777777778	0.7222222222222222	1	2.1919408191109446	0.1111111111111111	0.746031852860906	-0.380471164751217	0.143312120537357	28.6459879822021	None	51.1875275497785	8.88407062179205e-10	FALSE
AJ	Right	Canonical	Right	130.44444444444446	8.277777777777779	1	7.666666666666667	0	8.333333333333334	0.2222222222222222	2	2.295734859220829	0.6111111111111112	0.873016039596623	0.338445632956757	0.136433555990868	17.7677333955674	None	50.0889156451103	5.98214064027132e-14	FALSE
AJ	Right	Inverted	Right	122.5	8.833333333333334	1	8.61111111111111	1	9.722222222222221	0.6666666666666666	2	2.1325581836103487	0.2222222222222222	0.861233079111437	0.193097051431832	0.552004805940902	27.0847941442417	message= , call= bobyqa(par = par, fn = ufn, lower = lower, upper = upper, control = mcontrol,     ...)	50.2150669073111	4.99225285592189e-10	FALSE
AK	Both	Canonical	Left	117.73611111111111	7.791666666666667	2	8.11111111111111	0	7.361111111111111	0.5416666666666666	1.5694444444444444	3.6071632420275312	-0.3194444444444444	0.811719244696607	0.290907490403718	0.545300183551882	120.289979784211	message= , call= bobyqa(par = par, fn = ufn, lower = lower, upper = upper, control = mcontrol,     ...)	203.872394240034	5.20842260074491e-36	FALSE
AK	Both	Canonical	Right	117.73611111111111	8.166666666666666	2	8.11111111111111	0	7.361111111111111	0.1527777777777778	1.5694444444444444	3.3873538234163587	0.05555555555555555	0.389778543662522	0.479899957802785	0.521725559480797	185.255658777126	message= , call= bobyqa(par = par, fn = ufn, lower = lower, upper = upper, control = mcontrol,     ...)	207.846201364709	8.46802593580728e-10	FALSE
AK	Both	Inverted	Left	113.625	8.666666666666666	2	8.13888888888889	1	7.777777777777778	0.7083333333333334	1.5833333333333333	4.585928707319606	0.5277777777777778	0.791261398410741	0.580557470646388	0.60344535059248	127.946039381717	None	203.739419598938	1.1980117247701e-32	FALSE
AK	Both	Inverted	Right	113.625	8.819444444444445	2	8.13888888888889	1	7.680555555555555	0.125	1.5833333333333333	4.181022849985816	0.6805555555555556	0.307172556872683	0.626869614639589	1.20509647680695	205.749041772205	None	213.484095531246	0.00145595138628636	FALSE
AK	Left	Canonical	Left	92.94444444444444	8.777777777777779	1	8.333333333333334	0	7.833333333333333	0.2222222222222222	1	2.2085424961668547	0.4444444444444444	0.930643087230962	0.699754847904322	0.477988896254311	20.9462367118926	message= , call= bobyqa(par = par, fn = ufn, lower = lower, upper = upper, control = mcontrol,     ...)	49.9065941203163	1.63435540443713e-12	FALSE
AK	Left	Inverted	Left	122.22222222222223	8.055555555555555	1	8	1	8.11111111111111	0.5555555555555556	1	1.7995479155001197	0.05555555555555555	0.900684998914781	-0.183094132581035	1.07124363621627	32.9492031479821	message= , call= bobyqa(par = par, fn = ufn, lower = lower, upper = upper, control = mcontrol,     ...)	50.0889156451103	1.72953991971998e-7	FALSE
AK	Right	Canonical	Right	89.83333333333333	10.055555555555555	1	8.777777777777779	0	8.277777777777779	0.2777777777777778	2	2.161956048277918	1.2777777777777777	0.784311428107331	0.552307866564147	0.640540243816611	32.3031759520905	message= , call= bobyqa(par = par, fn = ufn, lower = lower, upper = upper, control = mcontrol,     ...)	50.4092228854496	6.75370792281907e-8	FALSE
AK	Right	Inverted	Right	71.55555555555556	9.444444444444445	1	8.777777777777779	1	5.5	0.2777777777777778	2	2.151731184777115	0.6666666666666666	0.365079500261889	0.499999998185225	0.160248594721645	48.4057271022336	None	54.011265966583	0.0106375751944889	FALSE
AL	Both	Canonical	Left	110.76388888888889	9.402777777777779	2	8.98611111111111	0	7.541666666666667	0.16666666666666666	1.3888888888888888	4.869765101040987	0.4166666666666667	0.660030565074729	0.668904357404322	0.578296474000062	152.224922494763	None	206.906882569514	1.50390909739278e-23	FALSE
AL	Both	Canonical	Right	110.76388888888889	8.847222222222221	2	8.98611111111111	0	9.125	0.3611111111111111	1.3888888888888888	5.906098730443571	-0.1388888888888889	0.298974405843942	0.455389552641149	0.482435833834175	198.433753519092	None	213.02139405533	2.05732155445956e-6	FALSE
AL	Both	Inverted	Left	103.83333333333333	8.916666666666666	2	8.305555555555555	1	7.680555555555555	0.6111111111111112	1.4305555555555556	5.075985307888408	0.6111111111111112	0.406905167130332	0.538741505972861	0.433784919937825	184.445552276611	None	210.516357646861	2.7940047184043e-11	FALSE
AL	Both	Inverted	Right	103.83333333333333	8.097222222222221	2	8.305555555555555	1	9.652777777777779	0.3888888888888889	1.4305555555555556	5.59384011931949	-0.20833333333333334	0.323340136711772	-0.126125061343449	1.05387470308471	200.674249144253	message= , call= bobyqa(par = par, fn = ufn, lower = lower, upper = upper, control = mcontrol,     ...)	210.165670033396	2.75641362493798e-4	FALSE
AL	Left	Canonical	Left	129.27777777777777	9.61111111111111	1	9.38888888888889	0	8.222222222222221	0.1111111111111111	1	3.0555518378884394	0.2222222222222222	0.746032028605509	0.375066374046383	0.149792325909366	29.1046969095772	message= , call= bobyqa(par = par, fn = ufn, lower = lower, upper = upper, control = mcontrol,     ...)	51.6462369884056	8.88406617634432e-10	FALSE
AL	Left	Inverted	Left	97.88888888888889	9.444444444444445	1	8.555555555555555	1	6.166666666666667	0.7222222222222222	1	4.022151810944504	0.8888888888888888	0.775119463151335	0.513572459208468	0.46854821644031	30.4445405466544	message= , call= bobyqa(par = par, fn = ufn, lower = lower, upper = upper, control = mcontrol,     ...)	50.7175241365327	8.1622402660442e-9	FALSE
AL	Right	Canonical	Right	117.05555555555556	9.666666666666666	1	8.166666666666666	0	9.11111111111111	0.6111111111111112	2	5.09188965861055	1.5	0.428571569485882	0.574713014268545	0.146931687101481	44.0868742287555	None	52.0366788815683	0.00118900989527923	FALSE
AL	Right	Inverted	Right	99.38888888888889	9.944444444444445	1	8.666666666666666	1	8.944444444444445	0.8888888888888888	2	5.273268863720053	1.2777777777777777	0.555555662685342	0.442076987194594	0.150324500585711	38.810782288704	None	51.0052061689845	2.07198654401062e-5	FALSE
AM	Both	Canonical	Left	107.79166666666667	8.305555555555555	2	8.51388888888889	0	6.138888888888889	0.2361111111111111	1.5	6.814996367055654	-0.20833333333333334	0.594363610032752	0.391983812576424	0.458853237598462	153.957071339622	message= , call= bobyqa(par = par, fn = ufn, lower = lower, upper = upper, control = mcontrol,     ...)	204.328802478166	1.0755536817021e-21	FALSE
AM	Both	Canonical	Right	107.79166666666667	8	2	8.51388888888889	0	7.916666666666667	0.20833333333333334	1.5	7.086288033139782	-0.5138888888888888	0.418677666753138	0.0993305905385624	0.491850657340094	177.44338413501401	message= , call= bobyqa(par = par, fn = ufn, lower = lower, upper = upper, control = mcontrol,     ...)	204.444891363878	1.12040020711409e-11	FALSE
AM	Both	Inverted	Left	107.58333333333333	8.48611111111111	2	8.833333333333334	1	7.708333333333333	0.4027777777777778	1.5138888888888888	7.577556853430805	-0.3472222222222222	0.531064079172373	0.548480707778883	0.394824950811777	169.882420766912	None	212.529609040951	2.24371027210811e-18	FALSE
AM	Both	Inverted	Right	107.58333333333333	8.916666666666666	2	8.833333333333334	1	7.847222222222222	0.25	1.5138888888888888	7.883973282945387	0.08333333333333333	0.490336880296549	0.270270581125115	0.528726204087198	175.672193904181	message= , call= bobyqa(par = par, fn = ufn, lower = lower, upper = upper, control = mcontrol,     ...)	209.504540944177	1.34958811065634e-14	FALSE
AM	Left	Canonical	Left	89.11111111111111	9.944444444444445	1	9.444444444444445	0	7.666666666666667	0.16666666666666666	1	5.302142672720947	0.5	0.746031969774989	0.409590652475747	0.152464897005043	29.9707874697919	None	51.4106709570928	2.60998928946551e-9	FALSE
AM	Left	Inverted	Left	98.27777777777777	8.222222222222221	1	8.722222222222221	1	8.944444444444445	0.6666666666666666	1	4.88288907866566	-0.5	0.659554741395574	-0.00400024823682296	0.458665655493479	34.3670869375127	message= , call= bobyqa(par = par, fn = ufn, lower = lower, upper = upper, control = mcontrol,     ...)	50.0209109291727	7.32245957208319e-7	FALSE
AM	Right	Canonical	Right	108.38888888888889	8.722222222222221	1	8.61111111111111	0	9.88888888888889	0.3888888888888889	2	7.041481332500957	0.1111111111111111	0.886095866851619	0.613620277894823	0.725896377013758	29.5067691147026	None	51.1875275497785	2.06228508247434e-9	FALSE
AM	Right	Inverted	Right	144.72222222222223	9.166666666666666	1	8.61111111111111	1	7.333333333333333	0.6111111111111112	2	2.3501714569477676	0.5555555555555556	0.786005610048289	0.427947583173366	0.491410784865481	29.5427908638923	None	49.9065941203163	7.46952411921273e-9	FALSE
AN	Both	Canonical	Left	113.52777777777777	8.416666666666666	2	8.722222222222221	0	7.319444444444445	0.3055555555555556	1.4027777777777777	4.951944095291562	-0.3055555555555556	0.643517541276213	0.092674022394731	0.497109464641531	149.862278698309	None	207.032231364118	1.27700812528303e-24	FALSE
AN	Both	Canonical	Right	113.52777777777777	9.166666666666666	2	8.722222222222221	0	7.847222222222222	0.6527777777777778	1.4027777777777777	5.50238453048587	0.4444444444444444	0.282571077493308	-0.0188181211960877	0.897430011009771	201.694244842391	None	209.928816175037	9.08554185334126e-4	FALSE
AN	Both	Inverted	Left	108.73611111111111	8.416666666666666	2	8.75	1	7.722222222222222	0.5694444444444444	1.5	5.313329984694469	-0.3333333333333333	0.64169952262382	0.0721757179202484	0.612299432468733	154.188736810995	message= , call= bobyqa(par = par, fn = ufn, lower = lower, upper = upper, control = mcontrol,     ...)	204.349962206558	1.32483495237604e-21	FALSE
AN	Both	Inverted	Right	108.73611111111111	9.194444444444445	2	8.75	1	8.333333333333334	0.6388888888888888	1.5	5.513006503986213	0.4444444444444444	0.204684392848192	0.38534370807352	0.817868629685114	212.227436218368	None	217.327897990648	0.0169332009374353	FALSE
AN	Left	Canonical	Left	115.38888888888889	8.666666666666666	1	8.944444444444445	0	7.333333333333333	0.3888888888888889	1	3.4852183753901045	-0.2777777777777778	0.492063607657151	0.288961072936978	0.127078463491334	37.7953400630695	None	50.9733405156627	8.03295817144042e-6	FALSE
AN	Left	Inverted	Left	88.44444444444444	9.277777777777779	1	9.055555555555555	1	7.277777777777778	0.8333333333333334	1	2.996937456279637	0.2222222222222222	0.722453292666427	0.311809607736893	0.470105404364611	32.9027040673663	message= , call= bobyqa(par = par, fn = ufn, lower = lower, upper = upper, control = mcontrol,     ...)	50.6503848861626	9.57330059048914e-8	FALSE
AN	Right	Canonical	Right	112.44444444444444	8.88888888888889	1	9.277777777777779	0	4.888888888888889	0.6666666666666666	2	2.5736850951103003	-0.3888888888888889	0.792821254549758	0.859624594904297	0.53049405172202	30.3959696260588	None	50.4714963884346	9.89775453627493e-9	FALSE
AN	Right	Inverted	Right	96.66666666666667	7.666666666666667	1	7.388888888888889	1	7.333333333333333	0.9444444444444444	2	2.8038324147799156	0.2777777777777778	0.740831642767193	0.865268685613536	1.0624004877636	38.8133166416579	None	50.4943806572184	3.39387209147478e-5	FALSE
AO	Both	Canonical	Left	112.875	8.333333333333334	2	8.569444444444445	0	6.888888888888889	0.06944444444444445	1.4027777777777777	2.988146851708229	-0.2361111111111111	0.829097728893752	0.0201499632252133	0.354068851142779	94.6204265589036	None	203.024490612494	9.83287362214465e-47	FALSE
AO	Both	Canonical	Right	112.875	8.083333333333334	2	8.569444444444445	0	7.208333333333333	0.4166666666666667	1.4027777777777777	3.4012899548610624	-0.4861111111111111	0.407683583394023	0.4258693026569	0.700366493106751	188.24221594949	message= , call= bobyqa(par = par, fn = ufn, lower = lower, upper = upper, control = mcontrol,     ...)	208.714345857762	6.71965027582352e-9	FALSE
AO	Both	Inverted	Left	118.77777777777777	9.01388888888889	2	8.73611111111111	1	7.736111111111111	0.3055555555555556	1.5	3.0655151955417574	0.2777777777777778	0.707271480489251	0.471443985467325	0.626417933168462	144.232456439774	None	204.245183276532	7.61999722044783e-26	FALSE
AO	Both	Inverted	Right	118.77777777777777	8.88888888888889	2	8.73611111111111	1	7.888888888888889	0.4444444444444444	1.5	3.101460375486176	0.1527777777777778	0.606733335200489	0.604670004226391	0.676052336888625	159.873714238755	None	203.566635187945	7.97908986260927e-19	FALSE
AO	Left	Canonical	Left	87.27777777777777	9.61111111111111	1	8.555555555555555	0	6.888888888888889	0.1111111111111111	1	2.0449781339448743	1.0555555555555556	0.755340987098752	0.274610774774614	0.532998272361958	33.2582663926463	None	51.8806745703385	4.08401559470281e-8	FALSE
AO	Left	Inverted	Left	84.5	9.333333333333334	1	8.833333333333334	1	8.666666666666666	0.3333333333333333	1	1.9213262331665848	0.5	0.789168540565087	0.280869918755178	0.593973168022613	33.2244441369885	message= , call= bobyqa(par = par, fn = ufn, lower = lower, upper = upper, control = mcontrol,     ...)	51.9378329747667	3.737495684545e-8	FALSE
AO	Right	Canonical	Right	86.11111111111111	9	1	9	0	6.722222222222222	0.16666666666666666	2	1.9475147765002576	0	0.855775977578487	0.455981378899836	0.501682106365406	26.9836649548465	None	50.8510554777286	2.42498773749963e-10	FALSE
AO	Right	Inverted	Right	117.5	9.11111111111111	1	8.833333333333334	1	7.555555555555555	0.4444444444444444	2	1.9997224498331687	0.2777777777777778	0.862020861248615	0.670483630480008	0.732637649960104	29.5919003807002	message= , call= bobyqa(par = par, fn = ufn, lower = lower, upper = upper, control = mcontrol,     ...)	49.9065941203163	7.83647357840119e-9	FALSE
AP	Both	Canonical	Left	113.20833333333333	11.23611111111111	2	8.26388888888889	0	8.930555555555555	0.5972222222222222	1.6805555555555556	4.197956441041713	2.9722222222222223	0.405078314796485	4	4	218.465172838781	message= , call= bobyqa(par = par, fn = ufn, lower = lower, upper = upper, control = mcontrol,     ...)	220.726743700279	0.210235363603889	FALSE
AP	Both	Canonical	Right	113.20833333333333	12.083333333333334	2	8.26388888888889	0	9.041666666666666	0.5555555555555556	1.6805555555555556	3.4230354672916814	3.8194444444444446	0.28571455827564	0.510431579345529	0.171117528170333	208.849136428057	None	223.388943504145	2.15480181925371e-6	FALSE
AP	Both	Inverted	Left	96.68055555555556	12.555555555555555	2	8.527777777777779	1	8.180555555555555	0.5694444444444444	1.375	3.3066412022499745	4.027777777777778	0.0814814865882961	0.807219378419618	0.0510124784251021	236.6603475703	message= , call= bobyqa(par = par, fn = ufn, lower = lower, upper = upper, control = mcontrol,     ...)	239.375846633513	0.142824439372652	FALSE
AP	Both	Inverted	Right	96.68055555555556	11.38888888888889	2	8.527777777777779	1	8.583333333333334	0.6527777777777778	1.375	4.025221685222198	2.861111111111111	0.25775168505888	0.446741356763496	0.721711420367465	221.475651466101	None	230.144084230218	6.02485235430078e-4	FALSE
AP	Left	Canonical	Left	102	12.88888888888889	1	8.61111111111111	0	9.055555555555555	0.7222222222222222	1	2.4002174924999813	4.277777777777778	0.245689993244712	0.753913920098176	0.388292223264015	54.2334570886047	None	57.2038349848848	0.114528430760015	FALSE
AP	Left	Inverted	Left	104.61111111111111	10.38888888888889	1	8.666666666666666	1	6.944444444444445	0.3888888888888889	1	2.6571773456111156	1.7222222222222223	0.428571614538588	0.365884090317528	0.144055261755736	45.3017257843603	None	54.2128026397158	4.78602307441809e-4	FALSE
AP	Right	Canonical	Right	139.77777777777777	9.444444444444445	1	8.722222222222221	0	6.666666666666667	0.5555555555555556	2	2.2573142657777603	0.7222222222222222	1	0.768084311320366	2.1771045085062	39.1253364613466	message= , call= bobyqa(par = par, fn = ufn, lower = lower, upper = upper, control = mcontrol,     ...)	50.0889156451103	6.75476227511272e-5	FALSE
AP	Right	Inverted	Right	116.05555555555556	9.777777777777779	1	9.166666666666666	1	7.222222222222222	0.7222222222222222	2	2.6325343837222714	0.6111111111111112	0.453352727214981	0.136789689047019	0.381495723303235	42.8940640033	None	51.8983838448055	4.38048675889008e-4	FALSE
AQ	Both	Canonical	Left	113.79166666666667	9.25	2	8.5	0	8.01388888888889	0.3472222222222222	1.4861111111111112	4.483757305277878	0.75	0.846911192998691	0.326651175557029	0.830463783795953	129.78889560137	message= , call= bobyqa(par = par, fn = ufn, lower = lower, upper = upper, control = mcontrol,     ...)	202.126756055532	3.70830620925713e-31	FALSE
AQ	Both	Canonical	Right	113.79166666666667	8.36111111111111	2	8.5	0	8.402777777777779	0.5	1.4861111111111112	4.569431303833375	-0.1388888888888889	0.573443477124026	0.358089113893583	0.995402183325563	176.01052865459	None	205.704287426798	7.94490321707379e-13	FALSE
AQ	Both	Inverted	Left	103.125	9.694444444444445	2	8.86111111111111	1	7.694444444444445	0.7083333333333334	1.4861111111111112	4.248109558902696	0.8333333333333334	0.661979271704775	0.733277877914513	0.849951310107589	163.912465323488	message= , call= bobyqa(par = par, fn = ufn, lower = lower, upper = upper, control = mcontrol,     ...)	207.431775703872	9.47340505756937e-19	FALSE
AQ	Both	Inverted	Right	103.125	8.722222222222221	2	8.86111111111111	1	8.694444444444445	0.6944444444444444	1.4861111111111112	4.327143055041789	-0.1388888888888889	0.474994760201657	0.249145407315021	0.732066847052758	178.365723523621	None	204.227330997431	3.43079632676326e-11	FALSE
AQ	Left	Canonical	Left	88.05555555555556	10.11111111111111	1	9.722222222222221	0	10	0.16666666666666666	1	2.269773640110947	0.3888888888888889	1	0.399352304417051	0.517156959865959	16.0813808384939	None	49.9065941203163	1.35911091697463e-14	FALSE
AQ	Left	Inverted	Left	113.72222222222223	7.777777777777778	1	8.277777777777779	1	5.944444444444445	0.8333333333333334	1	2.894321613222322	-0.5	0.809524064873448	0.459868065699399	0.153781305539413	26.6149218273815	message= , call= bobyqa(par = par, fn = ufn, lower = lower, upper = upper, control = mcontrol,     ...)	50.3990705035959	2.63106972481291e-10	FALSE
AQ	Right	Canonical	Right	107.27777777777777	8.944444444444445	1	7.833333333333333	0	8.944444444444445	0.5	2	2.8673278394442403	1.1111111111111112	0.78463747543556	0.398729640139785	0.750100279218846	33.6936125809588	message= , call= bobyqa(par = par, fn = ufn, lower = lower, upper = upper, control = mcontrol,     ...)	50.3120591484245	2.87060140765391e-7	FALSE
AQ	Right	Inverted	Right	125.27777777777777	8.38888888888889	1	7.888888888888889	1	9.722222222222221	0.8888888888888888	2	2.6347866461667055	0.5	0.655739070894811	0.259681508483041	0.451134990422759	35.166876846588	message= , call= bobyqa(par = par, fn = ufn, lower = lower, upper = upper, control = mcontrol,     ...)	50.4092228854496	1.0912334812029e-6	FALSE
AR	Both	Canonical	Left	115.02777777777777	8.791666666666666	2	8.11111111111111	0	9.51388888888889	0.1111111111111111	1.4027777777777777	2.727945177291556	0.6805555555555556	0.831200957474196	0.346504741148957	0.336123409249694	101.991556150845	None	203.266897419376	1.18580566754935e-43	FALSE
AR	Both	Canonical	Right	115.02777777777777	9.597222222222221	2	8.11111111111111	0	8.402777777777779	0.1111111111111111	1.4027777777777777	3.0399076371248714	1.4861111111111112	0.460594299061114	0.414618809574478	0.455783186210744	177.324253976129	message= , call= bobyqa(par = par, fn = ufn, lower = lower, upper = upper, control = mcontrol,     ...)	209.285884553704	8.52414914934683e-14	FALSE
AR	Both	Inverted	Left	98.81944444444444	9.416666666666666	2	8.51388888888889	1	8.347222222222221	0.3611111111111111	1.4722222222222223	3.034424296819528	0.9027777777777778	0.662602372571564	0.420430877768225	0.609275143544679	152.00459340463	None	205.704411486432	3.98011389352836e-23	FALSE
AR	Both	Inverted	Right	98.81944444444444	9.26388888888889	2	8.51388888888889	1	7.194444444444445	0.1388888888888889	1.4722222222222223	3.1440605144166764	0.75	0.407804659936084	0.739800554806239	0.542748579902345	186.142644254781	message= , call= bobyqa(par = par, fn = ufn, lower = lower, upper = upper, control = mcontrol,     ...)	210.314100342991	1.80009990969282e-10	FALSE
AR	Left	Canonical	Left	78.22222222222223	8.666666666666666	1	8.38888888888889	0	7.555555555555555	0.1111111111111111	1	1.8644659716666057	0.2777777777777778	0.923338567417162	0.460147715776947	0.504473548449232	21.9001570922378	message= , call= bobyqa(par = par, fn = ufn, lower = lower, upper = upper, control = mcontrol,     ...)	49.9065941203163	4.17444456258139e-12	FALSE
AR	Left	Inverted	Left	105.55555555555556	8.444444444444445	1	8.61111111111111	1	9.444444444444445	0.5555555555555556	1	1.8701989729999897	-0.16666666666666666	0.619047884345445	0.465455540872899	0.15225508100576	39.5078564177912	None	53.9725376880174	2.31728639898667e-6	FALSE
AR	Right	Canonical	Right	137.33333333333334	8.88888888888889	1	8.222222222222221	0	10.88888888888889	0.2777777777777778	2	1.8248743636668223	0.6666666666666666	0.823080728352419	0.121676684114258	0.569773098294529	28.7626570527959	message= , call= bobyqa(par = par, fn = ufn, lower = lower, upper = upper, control = mcontrol,     ...)	50.0889156451103	2.91663463974944e-9	FALSE
AR	Right	Inverted	Right	125.5	7.833333333333333	1	8.222222222222221	1	8.833333333333334	0.3888888888888889	2	2.1090388511108054	-0.3888888888888889	0.748603447568006	0.664791714565482	1.07014400552536	40.8862028278933	None	52.6428141469572	3.15630622760541e-5	FALSE
AS	Both	Canonical	Left	114.93055555555556	8.38888888888889	2	8.319444444444445	0	7	0.1111111111111111	1.5833333333333333	4.269094341375017	0.06944444444444445	0.79412724303154	0.239439875397506	0.406156878938821	113.191216083389	None	203.791141447005	4.85678156549032e-39	FALSE
AS	Both	Canonical	Right	114.93055555555556	7.875	2	8.319444444444445	0	8.61111111111111	0.4583333333333333	1.5833333333333333	3.9259655377498652	-0.4444444444444444	0.615555222513169	0.292288636585825	0.544665045848891	155.697604170187	message= , call= bobyqa(par = par, fn = ufn, lower = lower, upper = upper, control = mcontrol,     ...)	205.728410716925	1.50746628473698e-21	FALSE
AS	Both	Inverted	Left	108.48611111111111	8.75	2	8.75	1	7.638888888888889	0.4027777777777778	1.4444444444444444	4.077684111486229	0	0.683417294419339	0.469771915156377	0.49038723995326	140.299030255634	message= , call= bobyqa(par = par, fn = ufn, lower = lower, upper = upper, control = mcontrol,     ...)	203.504294221362	3.21018482204442e-27	FALSE
AS	Both	Inverted	Right	108.48611111111111	9.069444444444445	2	8.75	1	8.291666666666666	0.6111111111111112	1.4444444444444444	4.199324720458208	0.3194444444444444	0.837525357967145	0.378628806040577	0.619010216909654	117.33717444876	None	200.675026366779	6.6418576073987e-36	FALSE
AS	Left	Canonical	Left	106.22222222222223	9.277777777777779	1	8.722222222222221	0	6.166666666666667	0.05555555555555555	1	2.23854604516661	0.5555555555555556	0.936508155401099	0.416934493493484	0.152004961358983	17.0509904540368	message= , call= log(likelihood + 1e-08)	50.1579085028829	2.75853864749788e-14	FALSE
AS	Left	Inverted	Left	111.22222222222223	9.055555555555555	1	8.88888888888889	1	8.722222222222221	0.7777777777777778	1	2.731190081889104	0.16666666666666666	0.794580300707021	0.150302326848923	0.402111781289068	27.4523142975224	message= , call= bobyqa(par = par, fn = ufn, lower = lower, upper = upper, control = mcontrol,     ...)	50.5997411408763	4.90909109318425e-10	FALSE
AS	Right	Canonical	Right	87.72222222222223	8.444444444444445	1	8.277777777777779	0	8.666666666666666	0.05555555555555555	2	2.4107995271109153	0.16666666666666666	0.936508052699637	0.287190550508441	0.133219803996591	10.3043265649285	message= , call= log(likelihood + 1e-08)	49.9065941203163	4.5462337456072e-17	FALSE
AS	Right	Inverted	Right	103.16666666666667	8.11111111111111	1	8.277777777777779	1	9.555555555555555	0.9444444444444444	2	2.445618772500085	-0.16666666666666666	0.93650816640217	0.331874600550904	0.13970626065476	12.8410197888813	message= , call= log(likelihood + 1e-08)	50.0889156451103	4.64693924674044e-16	FALSE
AT	Both	Canonical	Left	112	9.166666666666666	2	8.76388888888889	0	8.472222222222221	0.1111111111111111	1.4861111111111112	3.6756941916526356	0.4027777777777778	0.661838488973995	0.243032982992209	0.460882617930564	144.597912379625	None	206.507827111145	1.1605577505196e-26	FALSE
AT	Both	Canonical	Right	112	9.166666666666666	2	8.76388888888889	0	6.611111111111111	0.3888888888888889	1.4861111111111112	3.6952122172916058	0.4027777777777778	0.705928053388567	0.54312931563871	0.547247874220396	142.147923437963	None	206.095594418164	1.53675110175836e-27	FALSE
AT	Both	Inverted	Left	112.33333333333333	8.041666666666666	2	8.26388888888889	1	7.305555555555555	0.19444444444444445	1.4027777777777777	3.4445827823749116	-0.2222222222222222	0.480969768854728	-0.18880697302475	1.26831939764898	196.127756763893	message= , call= bobyqa(par = par, fn = ufn, lower = lower, upper = upper, control = mcontrol,     ...)	212.774197807957	2.79357490237492e-7	FALSE
AT	Both	Inverted	Right	112.33333333333333	8.847222222222221	2	8.26388888888889	1	7.75	0.5416666666666666	1.4027777777777777	3.895053958819517	0.5833333333333334	0.614582971259084	0.48028008286665	0.66207297159936	162.949556219177	None	207.870877417753	2.3678550585071e-19	FALSE
AT	Left	Canonical	Left	97.94444444444444	8.88888888888889	1	8.277777777777779	0	9.166666666666666	0.16666666666666666	1	2.186477508111137	0.6111111111111112	0.931557842963891	0.130111946550597	0.393326436494446	18.6491531048089	message= , call= log(likelihood + 1e-08)	50.5997411408763	8.61735458711687e-14	FALSE
AT	Left	Inverted	Left	112.77777777777777	9.277777777777779	1	8.333333333333334	1	9.61111111111111	0.6111111111111112	1	3.1671481142780573	0.9444444444444444	0.794317079294753	0.21572704485382	0.439208990874811	29.2291375395146	None	51.2565204715511	1.46929186699545e-9	FALSE
AT	Right	Canonical	Right	92.83333333333333	9	1	8.444444444444445	0	8.277777777777779	0.3888888888888889	2	2.3606227383340106	0.5555555555555556	0.929187663276754	0.417755465241246	0.509254215290819	21.7712828154948	message= , call= bobyqa(par = par, fn = ufn, lower = lower, upper = upper, control = mcontrol,     ...)	49.9065941203163	3.6778371269997e-12	FALSE
AT	Right	Inverted	Right	101.11111111111111	7.777777777777778	1	7.777777777777778	1	8.222222222222221	0.8888888888888888	2	2.212019844611253	0	0.873016084660171	0.42323715082537	0.154009622968439	22.3054001543988	None	50.7175241365327	2.80174612979202e-12	FALSE
AU	Both	Canonical	Left	108.13888888888889	8.847222222222221	2	8.61111111111111	0	8.76388888888889	0.2361111111111111	1.5138888888888888	4.138239694180963	0.2361111111111111	0.666666794881264	0.408931235708452	0.141838089370314	132.676501038284	None	203.448462791992	1.75610147348844e-30	FALSE
AU	Both	Canonical	Right	108.13888888888889	8.833333333333334	2	8.61111111111111	0	8.097222222222221	0.3472222222222222	1.5138888888888888	4.090841861444915	0.2222222222222222	0.504309238410254	0.0875188186872059	0.462612222525077	169.192324165792	None	207.977946551347	1.01836359813579e-16	FALSE
AU	Both	Inverted	Left	106.08333333333333	8.833333333333334	2	8.63888888888889	1	7.875	0.5972222222222222	1.375	3.748596305138815	0.19444444444444445	0.526469358816743	0.592993508816356	0.573018503536569	170.19723258754	None	206.889005651742	8.04463789988565e-16	FALSE
AU	Both	Inverted	Right	106.08333333333333	8.86111111111111	2	8.63888888888889	1	7.986111111111111	0.3055555555555556	1.375	4.387234593749579	0.2222222222222222	0.275487784867347	0.545855237074213	0.942674726703124	209.797547129168	None	217.600766131208	0.00136533968850579	FALSE
AU	Left	Canonical	Left	112.33333333333333	8.666666666666666	1	8.166666666666666	0	5.888888888888889	0.16666666666666666	1	3.7522468839455945	0.5	0.746031862158423	0.294496280073366	0.127273200374548	23.6933989920051	None	49.9065941203163	2.42956187708029e-11	FALSE
AU	Left	Inverted	Left	110.77777777777777	8.222222222222221	1	8.166666666666666	1	10.166666666666666	0.6666666666666666	1	2.9127404302220787	0.05555555555555555	0.809524105254283	0.432936918617669	0.150958274743819	25.5749833974892	message= , call= bobyqa(par = par, fn = ufn, lower = lower, upper = upper, control = mcontrol,     ...)	49.9065941203163	1.53858180975643e-10	FALSE
AU	Right	Canonical	Right	108.94444444444444	8.555555555555555	1	8.38888888888889	0	9.055555555555555	0.16666666666666666	2	2.3246520023324897	0.16666666666666666	0.863293152109859	0.0756250358051262	0.359246984676636	21.0397355828322	None	49.9065941203163	1.79173370039379e-12	FALSE
AU	Right	Inverted	Right	113.05555555555556	8.722222222222221	1	8.555555555555555	1	7.555555555555555	0.7777777777777778	2	3.7289011911666927	0.16666666666666666	0.924507919614714	0.40749137001588	0.612284391198359	24.1655815578589	message= , call= bobyqa(par = par, fn = ufn, lower = lower, upper = upper, control = mcontrol,     ...)	49.9065941203163	3.86181014353706e-11	FALSE
AV	Both	Canonical	Left	97.18055555555556	8.027777777777779	2	8.63888888888889	0	6.833333333333333	0.19444444444444445	1.5	3.99301702029172	-0.6111111111111112	0.606850182821108	0.0751313554285868	0.39722888455379	146.84766358722499	None	205.363027888376	3.36399006419223e-25	FALSE
AV	Both	Canonical	Right	97.18055555555556	8.458333333333334	2	8.63888888888889	0	9.01388888888889	0.2777777777777778	1.5	4.086221746416919	-0.18055555555555555	0.574569711849471	0.259201947780902	0.658282097214302	163.296881791928	None	203.480867059927	2.55920397696774e-17	FALSE
AV	Both	Inverted	Left	117.25	7.944444444444445	2	8.152777777777779	1	6.277777777777778	0.4722222222222222	1.5555555555555556	4.1256510082780045	-0.20833333333333334	0.555626031347553	-0.15405843672227	0.333918967192752	154.729987787648	None	208.827343531381	2.68423032458304e-23	FALSE
AV	Both	Inverted	Right	117.25	8.805555555555555	2	8.152777777777779	1	9.277777777777779	0.4722222222222222	1.5555555555555556	3.803161193125258	0.6527777777777778	0.571072506020941	0.813011861590007	2.04378830412049	194.168975801111	message= , call= bobyqa(par = par, fn = ufn, lower = lower, upper = upper, control = mcontrol,     ...)	207.344333008278	8.05346680569544e-6	FALSE
AV	Left	Canonical	Left	100.44444444444444	8.11111111111111	1	7.611111111111111	0	7.833333333333333	0.05555555555555555	1	2.1378222927228814	0.5	0.819906488013948	-0.17761036669129	0.944551294285274	34.6537391339676	None	50.1460740495384	8.56389465902409e-7	FALSE
AV	Left	Inverted	Left	121.16666666666667	8.055555555555555	1	8.277777777777779	1	7.888888888888889	0.7777777777777778	1	2.500685599111522	-0.2222222222222222	0.862743111420296	0.0657303033707015	0.4726734445757	26.5691974723664	message= , call= bobyqa(par = par, fn = ufn, lower = lower, upper = upper, control = mcontrol,     ...)	51.736093295989	6.78282525301152e-11	FALSE
AV	Right	Canonical	Right	126.5	9.944444444444445	1	8.666666666666666	0	8.11111111111111	0.5	2	2.501158977944821	1.2777777777777777	0.717953986941696	0.392224386153864	0.481623604722258	34.2835035673769	None	51.5948462435749	1.46366037163749e-7	FALSE
AV	Right	Inverted	Right	96.16666666666667	8.11111111111111	1	8.666666666666666	1	10.277777777777779	0.8888888888888888	2	3.3825978060554514	-0.5555555555555556	0.619047772706433	0.429498148099739	0.151205434949081	35.6998739526328	None	50.6767021820124	1.41138380258327e-6	FALSE
AW	Both	Canonical	Left	109.72222222222223	9.38888888888889	2	8.777777777777779	0	8.194444444444445	0.1388888888888889	1.4861111111111112	4.273017015013971	0.6111111111111112	0.81855760313211	0.427849224140968	0.528128062139806	117.485836445755	None	203.261099909917	5.88738306767749e-37	FALSE
AW	Both	Canonical	Right	109.72222222222223	8.541666666666666	2	8.777777777777779	0	10.11111111111111	0.125	1.4861111111111112	4.341020980666751	-0.2361111111111111	0.481166166270439	0.38339072270987	0.532713313595224	176.68166373178	None	209.248281493873	4.69742229379994e-14	FALSE
AW	Both	Inverted	Left	100.70833333333333	9.041666666666666	2	8.972222222222221	1	7.861111111111111	0.3194444444444444	1.4166666666666667	4.3326526953329045	0.06944444444444445	0.687420458156765	0.267144134620142	0.494690347163847	139.128616041979	message= , call= bobyqa(par = par, fn = ufn, lower = lower, upper = upper, control = mcontrol,     ...)	203.558019163802	9.52784745491685e-28	FALSE
AW	Both	Inverted	Right	100.70833333333333	9.125	2	8.972222222222221	1	9.25	0.2916666666666667	1.4166666666666667	4.772205214138517	0.1527777777777778	0.435965282911189	-0.0619616239745169	0.461083834443071	177.454136826801	None	207.745459240084	4.41325504068108e-13	FALSE
AW	Left	Canonical	Left	118.83333333333333	9.333333333333334	1	8.722222222222221	0	8.777777777777779	0.3888888888888889	1	2.884542270556671	0.6111111111111112	1	0.611869633389646	0.771850981325722	22.0872060958122	None	49.9065941203163	5.01680742426665e-12	FALSE
AW	Left	Inverted	Left	117.27777777777777	10.333333333333334	1	9.5	1	7.388888888888889	0.5555555555555556	1	3.395961204777753	0.8333333333333334	0.9112054367492	0.375354266403708	0.951816664270405	31.9978313306606	message= , call= bobyqa(par = par, fn = ufn, lower = lower, upper = upper, control = mcontrol,     ...)	51.1875275497785	2.34916424660676e-8	FALSE
AW	Right	Canonical	Right	116.22222222222223	9.777777777777779	1	9.333333333333334	0	8.277777777777779	0.3333333333333333	2	2.6678735185547944	0.4444444444444444	1	0.440081362702286	0.516615744174673	16.2492291593173	None	49.9065941203163	1.60361813952365e-14	FALSE
AW	Right	Inverted	Right	107.94444444444444	9	1	9.055555555555555	1	8.666666666666666	0.5	2	2.7733954994433185	-0.05555555555555555	0.873016169282131	0.366337605127382	0.147131131216282	19.5296446461955	message= , call= bobyqa(par = par, fn = ufn, lower = lower, upper = upper, control = mcontrol,     ...)	50.1579085028829	3.16777304661416e-13	FALSE
AX	Both	Canonical	Left	94.91666666666667	9.333333333333334	2	8.583333333333334	0	9.13888888888889	0.19444444444444445	1.6111111111111112	3.787727142249322	0.75	0.591201431376465	0.20869435372376	0.373645043311509	147.510324919828	None	203.518488217492	4.03990262382113e-24	FALSE
AX	Both	Canonical	Right	94.91666666666667	8.430555555555555	2	8.583333333333334	0	8.25	0.3333333333333333	1.6111111111111112	3.4682419630689765	-0.1527777777777778	0.536292345100276	0.191732266907734	0.831043916884381	179.59229358186099	None	209.609499924482	5.77955713852934e-13	FALSE
AX	Both	Inverted	Left	108.43055555555556	8.069444444444445	2	8.805555555555555	1	8.930555555555555	0.4583333333333333	1.5138888888888888	3.656832592263729	-0.7361111111111112	0.709973363843809	0.194435582631686	0.379229906095194	126.637771069122	message= , call= bobyqa(par = par, fn = ufn, lower = lower, upper = upper, control = mcontrol,     ...)	203.582086051901	3.81809777473276e-33	FALSE
AX	Both	Inverted	Right	108.43055555555556	8.63888888888889	2	8.805555555555555	1	8.319444444444445	0.4166666666666667	1.5138888888888888	3.6258461606387047	-0.16666666666666666	0.537596346390219	0.267012396085978	0.453447895774373	164.092077745964	None	206.939110361967	1.8414829409631e-18	FALSE
AX	Left	Canonical	Left	133.88888888888889	9.055555555555555	1	8.666666666666666	0	8.833333333333334	0.3333333333333333	1	1.908774649389266	0.3888888888888889	1	0.391170025004974	0.61394791584977	18.5514989826457	message= , call= bobyqa(par = par, fn = ufn, lower = lower, upper = upper, control = mcontrol,     ...)	49.9065941203163	1.54892795636137e-13	FALSE
AX	Left	Inverted	Left	138.94444444444446	9.5	1	9.166666666666666	1	9	0.7222222222222222	1	2.13705268855564	0.3333333333333333	0.873016019724307	0.429578131218838	0.14128770363334	21.4944714976608	None	49.9065941203163	2.80174987392136e-12	FALSE
AX	Right	Canonical	Right	101	9.666666666666666	1	8.88888888888889	0	7.444444444444445	0.5555555555555556	2	2.0315953875558788	0.7777777777777778	0.925383832647383	0.469292664254974	0.61916376040701	24.5458842733546	message= , call= log(likelihood + 1e-08)	50.1579085028829	4.38287585904768e-11	FALSE
AX	Right	Inverted	Right	114.77777777777777	8.444444444444445	1	8.944444444444445	1	8.333333333333334	0.6111111111111112	2	2.06061849350024	-0.5	0.862742822084751	0.0657302590592871	0.472673407726738	24.8540188939628	message= , call= bobyqa(par = par, fn = ufn, lower = lower, upper = upper, control = mcontrol,     ...)	50.0209109291727	6.78285045785437e-11	FALSE
AY	Both	Canonical	Left	109.08333333333333	8.083333333333334	2	8.444444444444445	0	8.180555555555555	0.3611111111111111	1.4444444444444444	3.2156770307491467	-0.3611111111111111	0.920534752777797	-0.325594886525363	0.643696635606335	100.546543751153	message= , call= log(likelihood + 1e-08)	201.001162852559	2.68348387933303e-43	FALSE
AY	Both	Canonical	Right	109.08333333333333	8.708333333333334	2	8.444444444444445	0	8.86111111111111	0.6388888888888888	1.4444444444444444	3.488980893903014	0.2638888888888889	0.673721038458315	-0.132632771750274	0.587467729390296	148.56938925879	None	205.588369614672	1.48318631938797e-24	FALSE
AY	Both	Inverted	Left	110.05555555555556	7.875	2	8.36111111111111	1	7.138888888888889	0.7083333333333334	1.5694444444444444	3.4514863208745132	-0.4861111111111111	0.811400057075704	-0.226946803672491	0.753503934383481	133.736428119838	None	204.080679988104	2.68536677821541e-30	FALSE
AY	Both	Inverted	Right	110.05555555555556	8.291666666666666	2	8.36111111111111	1	8.291666666666666	0.75	1.5694444444444444	3.1457572640556464	-0.06944444444444445	0.485128877245612	-0.266066333992489	0.56947980126888	174.391015675827	None	206.051912118265	1.14621750170145e-13	FALSE
AY	Left	Canonical	Left	115.44444444444444	8.333333333333334	1	8.555555555555555	0	7.777777777777778	0.2777777777777778	1	2.0474831196673526	-0.2222222222222222	0.931417377608816	-0.0612341886692056	0.462161795891181	20.1139044063056	message= , call= bobyqa(par = par, fn = ufn, lower = lower, upper = upper, control = mcontrol,     ...)	49.9065941203163	7.20812945358493e-13	FALSE
AY	Left	Inverted	Left	76.83333333333333	8.38888888888889	1	8.38888888888889	1	8.166666666666666	0.5555555555555556	1	2.1362272306675245	0	0.690066426936722	-0.235737333499671	0.879815136367897	39.1157368783272	None	50.5515390616466	4.29495059358878e-5	FALSE
AY	Right	Canonical	Right	118.83333333333333	8.38888888888889	1	8.555555555555555	0	8.055555555555555	0.3888888888888889	2	2.071132834558537	-0.16666666666666666	0.865386991844768	0.00410369645862694	0.429452219216802	23.2810935200495	None	50.0243771359727	1.44379410291127e-11	FALSE
AY	Right	Inverted	Right	114.33333333333333	7.944444444444445	1	8.222222222222221	1	7.888888888888889	0.8333333333333334	2	1.8288135099986296	-0.2777777777777778	1	-0.277554109674417	0.886712011549032	24.2652136453701	None	49.9065941203163	4.25842970184711e-11	FALSE
AZ	Both	Canonical	Left	106.61111111111111	8.88888888888889	2	8.61111111111111	0	7.208333333333333	0.125	1.5833333333333333	3.6637467733758564	0.2777777777777778	0.84602219195874	0.053225583665208	0.406123175649944	97.3565201370364	message= , call= bobyqa(par = par, fn = ufn, lower = lower, upper = upper, control = mcontrol,     ...)	202.081121769635	3.83020190097865e-45	FALSE
AZ	Both	Canonical	Right	106.61111111111111	9.222222222222221	2	8.61111111111111	0	8.833333333333334	0.8055555555555556	1.5833333333333333	3.4595767427926045	0.6111111111111112	0.555798281710736	-0.161992100556183	0.402160087763742	158.651694453751	None	207.853734993296	3.42467927349073e-21	FALSE
AZ	Both	Inverted	Left	111.34722222222223	8.402777777777779	2	8.430555555555555	1	7.986111111111111	0.4166666666666667	1.5416666666666667	3.634296494554999	-0.027777777777777776	0.761177503011845	0.348187170042211	0.749456573990034	140.822409078217	message= , call= bobyqa(par = par, fn = ufn, lower = lower, upper = upper, control = mcontrol,     ...)	202.635851599812	1.27711737393287e-26	FALSE
AZ	Both	Inverted	Right	111.34722222222223	8.26388888888889	2	8.430555555555555	1	8.916666666666666	0.75	1.5416666666666667	3.7177980912216904	-0.16666666666666666	0.523370694623601	0.13999144494504	0.45062601642592	162.174102972874	message= , call= bobyqa(par = par, fn = ufn, lower = lower, upper = upper, control = mcontrol,     ...)	204.109791214657	4.53312266017739e-18	FALSE
AZ	Left	Canonical	Left	113.11111111111111	8.777777777777779	1	8.444444444444445	0	9.11111111111111	0	1	2.279825747168717	0.3333333333333333	1	0.346319627290788	0.508649684924784	15.7263150425469	message= , call= bobyqa(par = par, fn = ufn, lower = lower, upper = upper, control = mcontrol,     ...)	49.9065941203163	9.57757137092744e-15	FALSE
AZ	Left	Inverted	Left	108.27777777777777	9.555555555555555	1	8.555555555555555	1	6.777777777777778	0.5	1	2.066031181556658	1	0.706706580493085	0.493001719732067	0.626209516167519	36.4436412837608	None	51.4388420146308	1.38648785139328e-6	FALSE
AZ	Right	Canonical	Right	101.55555555555556	8.444444444444445	1	7.888888888888889	0	9.277777777777779	0.2777777777777778	2	2.7367310426109017	0.5555555555555556	0.726796108814204	0.0890820640449544	0.364879945120941	29.4691335120708	None	50.3990705035959	4.29644531227063e-9	FALSE
AZ	Right	Inverted	Right	107.22222222222223	7.833333333333333	1	7.833333333333333	1	9.722222222222221	0.8333333333333334	2	2.347828764390013	0	0.924508003213854	0.407491347844341	0.612284337275019	24.7533665443883	message= , call= bobyqa(par = par, fn = ufn, lower = lower, upper = upper, control = mcontrol,     ...)	50.4943806572184	3.86180426831927e-11	FALSE
BA	Both	Canonical	Left	110.54166666666667	8.833333333333334	2	8.666666666666666	0	8.180555555555555	0.1388888888888889	1.4722222222222223	4.264711253458801	0.16666666666666666	0.794486524666248	0.124961875825385	0.459211485810792	117.339351868691	message= , call= bobyqa(par = par, fn = ufn, lower = lower, upper = upper, control = mcontrol,     ...)	204.352508650273	1.71944419093325e-37	FALSE
BA	Both	Canonical	Right	110.54166666666667	8.625	2	8.666666666666666	0	8.180555555555555	0.3472222222222222	1.4722222222222223	4.420998461569373	-0.041666666666666664	0.538619367829504	0.228644757431367	0.367807594528813	155.637166772634	message= , call= bobyqa(par = par, fn = ufn, lower = lower, upper = upper, control = mcontrol,     ...)	203.203499722262	1.72903674678016e-20	FALSE
BA	Both	Inverted	Left	110.22222222222223	8.291666666666666	2	8.458333333333334	1	6.916666666666667	0.5	1.5555555555555556	4.37590106090344	-0.16666666666666666	0.711988605602926	0.169927594526488	0.78828095757979	153.207773546322	None	206.001982080295	9.76272259759125e-23	FALSE
BA	Both	Inverted	Right	110.22222222222223	8.11111111111111	2	8.458333333333334	1	7.930555555555555	0.4305555555555556	1.5555555555555556	4.191505036416654	-0.3472222222222222	0.316055897365126	0.182163743649311	0.749789035758497	199.110819672837	None	211.170868462999	2.35785229902512e-5	FALSE
BA	Left	Canonical	Left	109.27777777777777	9.555555555555555	1	9.5	0	7.666666666666667	0.1111111111111111	1	2.6659578917767957	0.05555555555555555	1	0.0573633221193509	0.45298995560863	14.0196726514498	None	49.9065941203163	1.77975575053806e-15	FALSE
BA	Left	Inverted	Left	107.77777777777777	8.833333333333334	1	9	1	8.722222222222221	0.7222222222222222	1	2.428521734167589	-0.16666666666666666	0.931125783238167	0.243143635113953	0.454398114012798	20.6290701571683	message= , call= log(likelihood + 1e-08)	50.3120591484245	8.02952072075195e-13	FALSE
BA	Right	Canonical	Right	110.94444444444444	9.444444444444445	1	9.277777777777779	0	9.38888888888889	0.16666666666666666	2	2.6354265432778954	0.16666666666666666	0.923338524369877	0.460147853034649	0.504472992182525	22.0179402925259	message= , call= log(likelihood + 1e-08)	50.0243771359727	4.17444532002331e-12	FALSE
BA	Right	Inverted	Right	90.94444444444444	8.11111111111111	1	8.277777777777779	1	8.277777777777779	0.7777777777777778	2	2.5808995057781834	-0.16666666666666666	0.655402157007123	0.260522823107939	0.449714924766575	36.0375836636598	message= , call= bobyqa(par = par, fn = ufn, lower = lower, upper = upper, control = mcontrol,     ...)	51.2785125067416	1.09273331011487e-6	FALSE
BB	Both	Canonical	Left	115.05555555555556	8.458333333333334	2	8.583333333333334	0	8.916666666666666	0.08333333333333333	1.5277777777777777	3.930086492208122	-0.125	0.984127136986418	-0.356476900985356	0.140924103790874	38.5214846878917	message= , call= log(likelihood + 1e-08)	199.626376481265	1.55019221948077e-69	FALSE
BB	Both	Canonical	Right	115.05555555555556	8.291666666666666	2	8.583333333333334	0	8.472222222222221	0.4444444444444444	1.5277777777777777	3.8425291549865506	-0.2916666666666667	0.576125874981889	0.0642909138054625	1.33487156278649	185.761727289529	message= , call= bobyqa(par = par, fn = ufn, lower = lower, upper = upper, control = mcontrol,     ...)	208.357337822898	8.42612471550971e-10	FALSE
BB	Both	Inverted	Left	99.25	8.569444444444445	2	8.791666666666666	1	8.541666666666666	0.6388888888888888	1.4861111111111112	4.057163093554361	-0.2222222222222222	0.794364826234408	-0.267537767882765	0.36532074181134	113.041232986639	None	206.494564954474	2.84309446059868e-40	FALSE
BB	Both	Inverted	Right	99.25	8.48611111111111	2	8.791666666666666	1	9.333333333333334	0.6388888888888888	1.4861111111111112	4.164547389290925	-0.3055555555555556	0.246703720316982	0.551597545775071	0.823581605406528	203.647692335331	None	210.815727970644	0.00248162430838429	FALSE
BB	Left	Canonical	Left	117.44444444444444	8.777777777777779	1	8.833333333333334	0	8.833333333333334	0.2222222222222222	1	2.3748951069444755	-0.05555555555555555	1	-0.0554965466952205	0.549241472586354	16.957980896574	None	49.9065941203163	3.22418049436282e-14	FALSE
BB	Left	Inverted	Left	88.94444444444444	8.833333333333334	1	9.333333333333334	1	8.777777777777779	0.5	1	2.316862987997916	-0.5	0.809523952922993	-0.379520100102996	0.137916845061927	23.7156286116205	None	50.0889156451103	2.0762299658645e-11	FALSE
BB	Right	Canonical	Right	114.22222222222223	9.11111111111111	1	8.61111111111111	0	6.222222222222222	0.3888888888888889	2	2.5815792181674624	0.5	0.706557802206317	0.486983604075967	0.459631543695209	34.092437099206	message= , call= bobyqa(par = par, fn = ufn, lower = lower, upper = upper, control = mcontrol,     ...)	51.2201529016659	1.74983390606516e-7	FALSE
BB	Right	Inverted	Right	124.16666666666667	8.944444444444445	1	9.055555555555555	1	8.777777777777779	0.9444444444444444	2	2.616788066667343	-0.1111111111111111	0.643055808234649	0.0824788342920058	0.766947446121157	39.8151666198236	None	50.5247408949534	8.61485457207903e-5	FALSE
BC	Both	Canonical	Left	107.18055555555556	8.319444444444445	2	8.027777777777779	0	8.097222222222221	0.2361111111111111	1.5138888888888888	3.624150059055359	0.2916666666666667	0.79498483994855	-0.0590857955602945	0.381281442344292	107.362616924347	None	203.748662244956	1.5373407613542e-41	FALSE
BC	Both	Canonical	Right	107.18055555555556	8.680555555555555	2	8.027777777777779	0	9.48611111111111	0.5	1.5138888888888888	3.7593978212642267	0.6527777777777778	0.607667927310814	0.0488495774263497	0.465752274941321	152.34156232269	None	205.947919405504	4.36630125542741e-23	FALSE
BC	Both	Inverted	Left	109.68055555555556	8.444444444444445	2	8.48611111111111	1	8.069444444444445	0.6805555555555556	1.625	3.846674690527531	-0.041666666666666664	0.63678986086536	0.0484064126470359	0.642469253875689	154.685662310693	None	203.253524342412	6.41621637435994e-21	FALSE
BC	Both	Inverted	Right	109.68055555555556	9.027777777777779	2	8.48611111111111	1	8.277777777777779	0.625	1.625	3.514005834749292	0.5416666666666666	0.398962882378409	0.349909598516119	0.325938020675486	185.279300232265	message= , call= bobyqa(par = par, fn = ufn, lower = lower, upper = upper, control = mcontrol,     ...)	212.75621672234	7.02366069691719e-12	FALSE
BC	Left	Canonical	Left	101.55555555555556	8.833333333333334	1	9	0	7.888888888888889	0.2777777777777778	1	2.0992883778906415	-0.16666666666666666	0.822222335992854	0.381613325953837	0.0100912443053696	16.2342494829004	None	49.9065941203163	1.58011698869366e-14	FALSE
BC	Left	Inverted	Left	130.5	8.61111111111111	1	7.944444444444445	1	9.166666666666666	0.8333333333333334	1	2.0756507276107894	0.6666666666666666	0.936508254732527	0.45218174472874	0.12558950538614	17.5954995412217	message= , call= bobyqa(par = par, fn = ufn, lower = lower, upper = upper, control = mcontrol,     ...)	49.9637525247445	5.71111263059947e-14	FALSE
BC	Right	Canonical	Right	95.55555555555556	9.777777777777779	1	9.38888888888889	0	8.277777777777779	0.2222222222222222	2	2.1328761671118426	0.3888888888888889	0.931611297892404	0.070660770922244	0.357000090937678	16.751632781568	message= , call= bobyqa(par = par, fn = ufn, lower = lower, upper = upper, control = mcontrol,     ...)	50.3990705035959	1.61938484990525e-14	FALSE
BC	Right	Inverted	Right	106.94444444444444	8.11111111111111	1	7.722222222222222	1	8.444444444444445	0.8888888888888888	2	2.242776968278728	0.3888888888888889	0.809524019511049	0.459356193192326	0.155742852599045	27.1846892335523	None	50.9688385190993	2.63106815398499e-10	FALSE
BD	Both	Canonical	Left	104.29166666666667	8.76388888888889	2	8.458333333333334	0	7.805555555555555	0.18055555555555555	1.5416666666666667	3.6478318967630106	0.3055555555555556	0.743732704284734	0.268767708213285	0.357154071317602	119.114857507142	None	202.527903130562	6.16349261522196e-36	FALSE
BD	Both	Canonical	Right	104.29166666666667	8.958333333333334	2	8.458333333333334	0	8.430555555555555	0.3194444444444444	1.5416666666666667	3.408468235332192	0.5	0.590349908863267	0.209399316390917	0.370536186723941	150.106174305377	None	206.102391046659	4.08802651523319e-24	FALSE
BD	Both	Inverted	Left	112	7.916666666666667	2	8.166666666666666	1	8.180555555555555	0.4444444444444444	1.5138888888888888	3.5263872701256735	-0.25	0.685412737182135	0.362520649882435	0.422339422637704	137.460528196257	message= , call= bobyqa(par = par, fn = ufn, lower = lower, upper = upper, control = mcontrol,     ...)	204.719625943062	5.7447195837328e-29	FALSE
BD	Both	Inverted	Right	112	8.055555555555555	2	8.166666666666666	1	8.5	0.5	1.5138888888888888	3.5904890581950895	-0.1111111111111111	0.47485544985564	0.0353146437623048	0.49872577319528	174.802605014508	None	208.476724324242	1.57735566794053e-14	FALSE
BD	Left	Canonical	Left	119.27777777777777	9.833333333333334	1	8.444444444444445	0	7.944444444444445	0.1111111111111111	1	1.9595519416106981	1.3888888888888888	0.873016387767591	0.500000027469225	0.163898987936739	24.6905116474156	message= , call= bobyqa(par = par, fn = ufn, lower = lower, upper = upper, control = mcontrol,     ...)	51.9496671721114	8.6989739531563e-12	FALSE
BD	Left	Inverted	Left	116.05555555555556	9.055555555555555	1	7.722222222222222	1	8.666666666666666	0.8888888888888888	1	2.289944286720937	1.3333333333333333	0.794822417315457	-0.0817790516855129	0.361231866212651	26.9358015188664	None	51.6211635394248	1.08768213573839e-10	FALSE
BD	Right	Canonical	Right	97.83333333333333	9.722222222222221	1	9.5	0	7.222222222222222	0.16666666666666666	2	2.115701382611102	0.2222222222222222	1	0.22162604443502	0.989967569173242	26.0831988568706	None	49.9065941203163	2.53181305003305e-10	FALSE
BD	Right	Inverted	Right	103.66666666666667	8.277777777777779	1	8.11111111111111	1	8.555555555555555	0.7222222222222222	2	2.6100172884446997	0.16666666666666666	0.809524064079042	0.458337437106811	0.159646932409659	26.1224458882017	message= , call= bobyqa(par = par, fn = ufn, lower = lower, upper = upper, control = mcontrol,     ...)	49.9065941203163	2.63107086967993e-10	FALSE
BE	Both	Canonical	Left	111.73611111111111	8.833333333333334	2	8.902777777777779	0	7.527777777777778	0.4027777777777778	1.5972222222222223	3.967346153791166	-0.06944444444444445	0.401677858865144	0.218804150277461	0.311714237557196	186.3993115864	message= , call= bobyqa(par = par, fn = ufn, lower = lower, upper = upper, control = mcontrol,     ...)	217.411429335949	2.17104685858082e-13	FALSE
BE	Both	Canonical	Right	111.73611111111111	9.347222222222221	2	8.902777777777779	0	8.125	0.3333333333333333	1.5972222222222223	3.8425871646801775	0.4444444444444444	0.288896365657558	0.78252451652311	0.649494527071598	208.207735363009	None	219.834431301144	3.57578660023056e-5	FALSE
BE	Both	Inverted	Left	99.84722222222223	8.583333333333334	2	8.541666666666666	1	7.930555555555555	0.6111111111111112	1.5277777777777777	4.793725319055536	0.041666666666666664	0.396453886540289	0.09031882080872	0.702427235775445	184.649472554227	None	204.060418534106	1.89319434887827e-8	FALSE
BE	Both	Inverted	Right	99.84722222222223	9.291666666666666	2	8.541666666666666	1	8.305555555555555	0.3333333333333333	1.5277777777777777	5.0162943365420585	0.75	0.259412441178987	0.349953169109158	0.542190045422429	199.642806022925	None	210.350944473918	8.62670217973416e-5	FALSE
BE	Left	Canonical	Left	119.5	9.055555555555555	1	8.277777777777779	0	8	0.5555555555555556	1	3.006168858443238	0.7777777777777778	0.46661934789845	0.0947034810273192	0.785104192681918	47.865727904406	None	53.7844533468238	0.00796124306209752	FALSE
BE	Left	Inverted	Left	127.22222222222223	9.777777777777779	1	9.277777777777779	1	8.666666666666666	0.7222222222222222	1	2.348966071555171	0.5	0.52122643986151	-0.12005948373934	0.374667305430991	42.1581156734129	message= , call= bobyqa(par = par, fn = ufn, lower = lower, upper = upper, control = mcontrol,     ...)	53.7256774900861	3.78469556389549e-5	FALSE
BE	Right	Canonical	Right	125.55555555555556	8.944444444444445	1	9.222222222222221	0	9.722222222222221	0.2222222222222222	2	2.5949678994454897	-0.2777777777777778	0.619046255684208	0.470612462407059	0.1295256466007	38.0644754640215	message= , call= bobyqa(par = par, fn = ufn, lower = lower, upper = upper, control = mcontrol,     ...)	52.5291552648479	2.31728969370686e-6	FALSE
BE	Right	Inverted	Right	83.38888888888889	9.38888888888889	1	8.61111111111111	1	8.5	0.5	2	2.551232072446308	0.7777777777777778	0.49206365355202	0.456752651930411	0.150743324220213	43.6214987790462	None	53.3202130419773	2.26247408666902e-4	FALSE
BF	Both	Canonical	Left	106.94444444444444	8.319444444444445	2	8.291666666666666	0	6.361111111111111	0.3611111111111111	1.4444444444444444	3.9543274898343146	0.027777777777777776	0.718321966621803	0.296892001217464	0.67274545346535	142.043548617864	None	201.877890834034	9.09474184803625e-26	FALSE
BF	Both	Canonical	Right	106.94444444444444	8.375	2	8.291666666666666	0	8.402777777777779	0.7083333333333334	1.4444444444444444	4.363385184458618	0.08333333333333333	0.491598807545053	0.176790350686692	0.544452613843738	173.827143954532	None	207.441350711223	1.67329935502844e-14	FALSE
BF	Both	Inverted	Left	113.84722222222223	8.5	2	8.680555555555555	1	7.055555555555555	0.7222222222222222	1.5138888888888888	4.412570248916988	-0.18055555555555555	0.649466471915958	0.148287620289367	0.676839673020997	159.449911148108	message= , call= bobyqa(par = par, fn = ufn, lower = lower, upper = upper, control = mcontrol,     ...)	207.845401185716	7.60996417940694e-21	FALSE
BF	Both	Inverted	Right	113.84722222222223	8.01388888888889	2	8.680555555555555	1	7.319444444444445	0.8194444444444444	1.5138888888888888	4.384188009556358	-0.6666666666666666	0.688440039199789	0.165655166051647	0.817092681915169	160.594385237976	message= , call= bobyqa(par = par, fn = ufn, lower = lower, upper = upper, control = mcontrol,     ...)	209.254058549667	5.85878800577866e-21	FALSE
BF	Left	Canonical	Left	124.55555555555556	8.833333333333334	1	8.722222222222221	0	6.833333333333333	0.05555555555555555	1	2.436423768335468	0.1111111111111111	0.936508106925194	0.44260108856694	0.150752736052678	17.5383412790175	message= , call= log(likelihood + 1e-08)	49.9065941203163	5.71111343068042e-14	FALSE
BF	Left	Inverted	Left	98.55555555555556	8.11111111111111	1	8.11111111111111	1	8.88888888888889	0.7222222222222222	1	2.4952909005555233	0	0.936508147362315	0.419713558953276	0.146919337364582	16.9819977881612	message= , call= log(likelihood + 1e-08)	50.0889156451103	2.75853916908994e-14	FALSE
BF	Right	Canonical	Right	84.27777777777777	9.444444444444445	1	9.166666666666666	0	6.388888888888889	0.5	2	2.4890166598334975	0.2777777777777778	0.77444432896345	0.618900131866988	0.602337388760633	32.6608346886319	message= , call= bobyqa(par = par, fn = ufn, lower = lower, upper = upper, control = mcontrol,     ...)	50.8998456853266	5.93341304081206e-8	FALSE
BF	Right	Inverted	Right	111.44444444444444	8.38888888888889	1	7.333333333333333	1	7.5	0.8333333333333334	2	2.3865048956674095	1.0555555555555556	0.929896510577671	0.641787161800895	0.495671134795184	21.7060545312789	message= , call= bobyqa(par = par, fn = ufn, lower = lower, upper = upper, control = mcontrol,     ...)	50.1579085028829	2.69443401397257e-12	FALSE
BG	Both	Canonical	Left	121.91666666666667	8.944444444444445	2	8.36111111111111	0	8.51388888888889	0.08333333333333333	1.5	3.8474227994851793	0.5833333333333334	0.81477510302486	0.285350338018082	0.439067984544822	108.826429002864	message= , call= bobyqa(par = par, fn = ufn, lower = lower, upper = upper, control = mcontrol,     ...)	200.827315583352	1.20563270499664e-39	FALSE
BG	Both	Canonical	Right	121.91666666666667	7.347222222222222	2	8.36111111111111	0	6.277777777777778	0.1388888888888889	1.5	3.6677213430828286	-1.0138888888888888	0.766345578670608	-1.67655214720214	3.77149397975523	199.330501911465	message= , call= bobyqa(par = par, fn = ufn, lower = lower, upper = upper, control = mcontrol,     ...)	208.452193510916	3.91825219100733e-4	FALSE
BG	Both	Inverted	Left	99.65277777777777	8.76388888888889	2	8.75	1	8.38888888888889	0.2916666666666667	1.5138888888888888	4.154594730666657	0.013888888888888888	0.630993885354888	0.337962912326431	0.611148080531751	157.224824291049	None	206.437413610065	3.38909904474466e-21	FALSE
BG	Both	Inverted	Right	99.65277777777777	8.347222222222221	2	8.75	1	6.611111111111111	0.2222222222222222	1.5138888888888888	4.072916054722858	-0.4027777777777778	0.346557483649952	-0.111558632883134	1.05022812969279	204.209278962635	None	215.111754998486	7.16195175031456e-5	FALSE
BG	Left	Canonical	Left	104.66666666666667	7.777777777777778	1	8	0	10.5	0.2777777777777778	1	2.6733050388882273	-0.2222222222222222	0.725211700616085	0.235391996260716	0.445259961641493	34.8508770067609	None	53.3047085579032	4.81308373046518e-8	FALSE
BG	Left	Inverted	Left	105.33333333333333	9.444444444444445	1	9.722222222222221	1	7.555555555555555	0.4444444444444444	1	1.9980146830025154	-0.2777777777777778	0.785863414462918	0.427941539167494	0.490738092607734	29.5435099183152	None	49.9065941203163	7.47477112083517e-9	FALSE
BG	Right	Canonical	Right	102.55555555555556	8.666666666666666	1	9.444444444444445	0	6.722222222222222	0.2777777777777778	2	2.230010986442115	-0.7777777777777778	0.837861570522573	-0.0223135470938436	0.72279088906948	31.1953844346112	None	50.3692175528527	2.38578752251858e-8	FALSE
BG	Right	Inverted	Right	103.16666666666667	9	1	8.277777777777779	1	7.055555555555555	0.6666666666666666	2	2.5376237872252307	0.7222222222222222	0.80952389814369	0.513971244742956	0.162234021264053	26.9678567856516	None	50.4833308417791	3.4233205105113e-10	FALSE
BH	Both	Canonical	Left	110.88888888888889	8.972222222222221	2	8.930555555555555	0	5.25	0.1111111111111111	1.4861111111111112	4.389013316847316	0.041666666666666664	0.778370462764569	0.0951214171065725	0.565605304505822	126.110451784577	message= , call= bobyqa(par = par, fn = ufn, lower = lower, upper = upper, control = mcontrol,     ...)	202.776754378236	5.03280753337714e-33	FALSE
BH	Both	Canonical	Right	110.88888888888889	8.972222222222221	2	8.930555555555555	0	8.472222222222221	0.2777777777777778	1.4861111111111112	4.235181439389432	0.041666666666666664	0.779038502750491	0.0373322743232101	0.467692412119745	120.555026893499	message= , call= bobyqa(par = par, fn = ufn, lower = lower, upper = upper, control = mcontrol,     ...)	204.17792763908	5.00296154447517e-36	FALSE
BH	Both	Inverted	Left	105.23611111111111	9.26388888888889	2	8.569444444444445	1	6.527777777777778	0.4861111111111111	1.5555555555555556	4.5332584929585416	0.6944444444444444	0.773623365858859	0.355261532114	0.910322574322608	148.466803829441	None	204.57221729342	3.66864642606882e-24	FALSE
BH	Both	Inverted	Right	105.23611111111111	8.75	2	8.569444444444445	1	7.888888888888889	0.6388888888888888	1.5555555555555556	4.008684480722271	0.18055555555555555	0.58140071126169	-0.167777237438524	1.03996143752012	178.723595982722	None	207.520975473041	1.91841172988949e-12	FALSE
BH	Left	Canonical	Left	109.83333333333333	8.444444444444445	1	7.666666666666667	0	7	0.16666666666666666	1	2.136458188669672	0.7777777777777778	0.863087120352812	4.55556961925836e-8	0.421735288442946	23.8356836316265	message= , call= bobyqa(par = par, fn = ufn, lower = lower, upper = upper, control = mcontrol,     ...)	50.5574387981086	1.4746409064302e-11	FALSE
BH	Left	Inverted	Left	105.27777777777777	8.722222222222221	1	8.38888888888889	1	8.166666666666666	0.4444444444444444	1	2.5881373668906034	0.3333333333333333	0.870772873969211	0.0501083302137883	0.500711386807259	25.0819843428535	None	50.3120591484245	6.37523751564594e-11	FALSE
BH	Right	Canonical	Right	119.16666666666667	8	1	8.11111111111111	0	8.166666666666666	0.2222222222222222	2	2.3802391865538084	-0.1111111111111111	0.863648082996607	0.0762738879160313	0.360319185361559	21.3619430931176	message= , call= bobyqa(par = par, fn = ufn, lower = lower, upper = upper, control = mcontrol,     ...)	50.2320164592125	1.78607900189489e-12	FALSE
BH	Right	Inverted	Right	103.22222222222223	8.555555555555555	1	9	1	8.666666666666666	0.7777777777777778	2	2.428761768331848	-0.4444444444444444	0.606954930613694	-0.138464198513252	0.602628749427234	38.2944795470655	None	49.9065941203163	3.62620686365497e-5	FALSE
BI	Both	Canonical	Left	112.63888888888889	8.680555555555555	2	8.458333333333334	0	5.375	0.18055555555555555	1.5694444444444444	3.4287885667355216	0.2222222222222222	0.796020371490784	0.107367950924131	0.576232842863053	123.469925306798	None	202.320612202022	5.74338280361238e-34	FALSE
BI	Both	Canonical	Right	112.63888888888889	8.902777777777779	2	8.458333333333334	0	7.5	0.3472222222222222	1.5694444444444444	3.2682836041668555	0.4444444444444444	0.641336517142057	0.17965959095526501	0.463766474061927	149.44090728521	None	207.948665408771	3.38945808701914e-25	FALSE
BI	Both	Inverted	Left	104.375	9.11111111111111	2	8.38888888888889	1	6.944444444444445	0.6527777777777778	1.5277777777777777	3.5245704779594638	0.7222222222222222	0.638006224727106	0.457866341799892	0.675947737344288	158.78628188	None	206.321073290112	1.78386275542157e-20	FALSE
BI	Both	Inverted	Right	104.375	9.125	2	8.38888888888889	1	7.430555555555555	0.7361111111111112	1.5277777777777777	3.4439247205977557	0.7361111111111112	0.585826564069224	0.240093027224636	0.486783714299255	157.33870400464	message= , call= bobyqa(par = par, fn = ufn, lower = lower, upper = upper, control = mcontrol,     ...)	205.465923160463	9.924494171689e-21	FALSE
BI	Left	Canonical	Left	100.11111111111111	8.333333333333334	1	8.222222222222221	0	6.333333333333333	0.2777777777777778	1	1.7819998003890052	0.1111111111111111	0.658005215202723	0.0972365053540412	0.366783121427451	33.51974725939	message= , call= bobyqa(par = par, fn = ufn, lower = lower, upper = upper, control = mcontrol,     ...)	51.0333770025226	1.20220112644615e-7	FALSE
BI	Left	Inverted	Left	97.94444444444444	8.61111111111111	1	8.666666666666666	1	9.222222222222221	0.8333333333333334	1	2.1161432985011035	-0.05555555555555555	0.928747900947277	0.417115913453111	0.506767540849828	22.2680762917673	message= , call= bobyqa(par = par, fn = ufn, lower = lower, upper = upper, control = mcontrol,     ...)	50.3990705035959	3.69347519109779e-12	FALSE
BI	Right	Canonical	Right	131.72222222222223	8.944444444444445	1	8.777777777777779	0	7.055555555555555	0.3888888888888889	2	1.9838351164443238	0.16666666666666666	0.809523934813258	0.424019387937677	0.0869772213454943	23.5904655859405	None	49.9637525247445	2.07623015886079e-11	FALSE
BI	Right	Inverted	Right	104.16666666666667	10.722222222222221	1	9.38888888888889	1	8.61111111111111	0.7777777777777778	2	2.512748702723507	1.3333333333333333	0.809524002221815	0.540478482845373	0.15510929807738	27.2980178640199	None	51.0821671941206	2.63106803912793e-10	FALSE
BJ	Both	Canonical	Left	102.83333333333333	5.236111111111111	2	8.583333333333334	0	8.38888888888889	0.4305555555555556	1.4722222222222223	4.0596770342195265	-3.3472222222222223	0.0666666915387627	-3.99770594214709	0.0201255926770395	230.958935769199	message= , call= bobyqa(par = par, fn = ufn, lower = lower, upper = upper, control = mcontrol,     ...)	232.850710290213	0.285805460657853	TRUE
BJ	Both	Canonical	Right	102.83333333333333	8.01388888888889	2	8.583333333333334	0	8.055555555555555	0.5694444444444444	1.4722222222222223	4.193547815762738	-0.5694444444444444	0.0793651479260093	3.3519271760885	0.142867687099877	220.265210714934	message= , call= bobyqa(par = par, fn = ufn, lower = lower, upper = upper, control = mcontrol,     ...)	222.234219017827	0.268235471815613	TRUE
BJ	Both	Inverted	Left	114.06944444444444	4.472222222222222	2	8.652777777777779	1	8.125	0.3472222222222222	1.4444444444444444	3.9600735980145854	-4.180555555555555	0.200563584359542	-4	4	239.200737645928	message= , call= bobyqa(par = par, fn = ufn, lower = lower, upper = upper, control = mcontrol,     ...)	239.849963325674	0.729500849146131	TRUE
BJ	Both	Inverted	Right	114.06944444444444	7.402777777777778	2	8.652777777777779	1	7.680555555555555	0.4444444444444444	1.4444444444444444	4.325566516736014	-1.25	0.121422995948511	-4	4	217.977924212708	message= , call= bobyqa(par = par, fn = ufn, lower = lower, upper = upper, control = mcontrol,     ...)	218.230790378369	0.917630250669537	TRUE
BJ	Left	Canonical	Left	115.88888888888889	5.388888888888889	1	7.722222222222222	0	6.555555555555555	0.4444444444444444	1	2.588398823496795	-2.3333333333333335	0.837345860262681	-4	4	50.3130960227851	message= , call= bobyqa(par = par, fn = ufn, lower = lower, upper = upper, control = mcontrol,     ...)	53.1907671648881	0.124139395955975	TRUE
BJ	Left	Inverted	Left	126.72222222222223	4.5	1	8.38888888888889	1	7.611111111111111	0.5	1	2.7017712467188377	-3.888888888888889	0.319037240945294	-4	4	58.0739064055434	message= , call= bobyqa(par = par, fn = ufn, lower = lower, upper = upper, control = mcontrol,     ...)	58.4194346831878	0.875305494649665	TRUE
BJ	Right	Canonical	Right	86.55555555555556	7.333333333333333	1	9.444444444444445	0	6.166666666666667	0.3333333333333333	2	2.988079120503648	-2.111111111111111	0.0518518640785149	-0.64495086933268	0.0118637131620896	53.4486254530102	None	53.7474415620067	0.896974208427153	TRUE
BJ	Right	Inverted	Right	105.22222222222223	6.944444444444445	1	9.444444444444445	1	8	0.3888888888888889	2	2.986711625774559	-2.5	0.111111163575016	-0.752995160634571	0.0111460610378417	55.0877165347512	message= , call= bobyqa(par = par, fn = ufn, lower = lower, upper = upper, control = mcontrol,     ...)	56.2634590441505	0.502729555285272	TRUE
BK	Both	Canonical	Left	109.88888888888889	8.48611111111111	2	8.541666666666666	0	7.583333333333333	0.7083333333333334	1.4583333333333333	3.5017579318320915	-0.05555555555555555	0.396374951687501	-0.239498438420474	0.629841187736874	187.624592813181	message= , call= bobyqa(par = par, fn = ufn, lower = lower, upper = upper, control = mcontrol,     ...)	208.615760339146	4.04690721876155e-9	FALSE
BK	Both	Canonical	Right	109.88888888888889	8.041666666666666	2	8.541666666666666	0	6.902777777777778	0.2222222222222222	1.4583333333333333	3.6480088187219937	-0.5	0.317460377562279	-0.395844325140769	0.161413214958156	190.578525960695	None	210.226761247102	1.50194649125008e-8	FALSE
BK	Both	Inverted	Left	101.40277777777777	8.73611111111111	2	8.458333333333334	1	8.23611111111111	0.4861111111111111	1.4861111111111112	3.6352281042531507	0.2777777777777778	0.599835510395172	-0.287563579022412	0.662585366502964	165.857013377337	message= , call= bobyqa(par = par, fn = ufn, lower = lower, upper = upper, control = mcontrol,     ...)	208.91801311442	1.49039125891278e-18	FALSE
BK	Both	Inverted	Right	101.40277777777777	8.847222222222221	2	8.458333333333334	1	6.097222222222222	0.16666666666666666	1.4861111111111112	3.614637862711081	0.3888888888888889	0.162389387154287	-0.121900596382741	0.30195897365019	202.67812354446	None	209.940391297851	0.0022715302306329198	FALSE
BK	Left	Canonical	Left	112.5	8.722222222222221	1	8.277777777777779	0	6.333333333333333	0.5555555555555556	1	2.449049630549982	0.4444444444444444	0.651299454014107	0.34733125339126	0.470725880038811	36.361916066982	message= , call= bobyqa(par = par, fn = ufn, lower = lower, upper = upper, control = mcontrol,     ...)	51.0093299025319	1.94167092541281e-6	FALSE
BK	Left	Inverted	Left	113.72222222222223	7	1	8.38888888888889	1	9.722222222222221	0.3888888888888889	1	2.5400621534936363	-1.3888888888888888	0.589581674634063	-0.111706740452785	0.928188065010998	44.8876978134346	message= , call= bobyqa(par = par, fn = ufn, lower = lower, upper = upper, control = mcontrol,     ...)	52.9719062782975	0.0010472948839106	FALSE
BK	Right	Canonical	Right	108.94444444444444	8.88888888888889	1	8.38888888888889	0	7	0.3333333333333333	2	2.3349076098335595	0.5	0.655399627746736	0.260523511739659	0.449701922319509	36.2203957122968	message= , call= bobyqa(par = par, fn = ufn, lower = lower, upper = upper, control = mcontrol,     ...)	51.4613149223789	1.09274351182672e-6	FALSE
BK	Right	Inverted	Right	121.66666666666667	9.222222222222221	1	8.555555555555555	1	6.222222222222222	0.3888888888888889	2	2.4551363173911036	0.6666666666666666	0.52592605897892	-0.170885840628223	0.0100234321327811	36.1497408022868	message= , call= bobyqa(par = par, fn = ufn, lower = lower, upper = upper, control = mcontrol,     ...)	52.0266284692473	5.89760414486353e-7	FALSE
BL	Both	Canonical	Left	120.47222222222223	8.63888888888889	2	8.416666666666666	0	6.263888888888889	0.1111111111111111	1.4722222222222223	3.5266300776400183	0.2222222222222222	0.82878991016257	0.241962487440135	0.361356584241207	101.434730801519	None	203.808992374157	3.97264124550042e-44	FALSE
BL	Both	Canonical	Right	120.47222222222223	8.5	2	8.416666666666666	0	8.555555555555555	0.125	1.4722222222222223	3.782027919874963	0.08333333333333333	0.783447772908319	0.184127247644449	0.707514263895158	133.353889473026	None	202.784660807051	6.65157699332372e-30	FALSE
BL	Both	Inverted	Left	106.01388888888889	8.73611111111111	2	8.875	1	7.444444444444445	0.7083333333333334	1.4722222222222223	3.6262104310133307	-0.1388888888888889	0.897400024970277	0.182678421836774	0.344285624653565	76.2987611930836	None	200.031841509373	2.3112579122414e-53	FALSE
BL	Both	Inverted	Right	106.01388888888889	8.708333333333334	2	8.875	1	8.958333333333334	0.3055555555555556	1.4722222222222223	3.7876274694834944	-0.16666666666666666	0.617259450120681	0.344800960182414	0.566269643027424	156.901668596823	message= , call= bobyqa(par = par, fn = ufn, lower = lower, upper = upper, control = mcontrol,     ...)	206.104591779917	3.42168792121014e-21	FALSE
BL	Left	Canonical	Left	99	8.5	1	8.833333333333334	0	8.722222222222221	0.16666666666666666	1	2.418770398776461	-0.3333333333333333	0.936508462301014	0.39509809366337	0.143930656438637	17.0571542979497	message= , call= log(likelihood + 1e-08)	51.1875275497785	1.00605296141236e-14	FALSE
BL	Left	Inverted	Left	85.05555555555556	8.444444444444445	1	8.777777777777779	1	10.88888888888889	0.8333333333333334	1	2.0758319383296313	-0.3333333333333333	0.873015957399716	0.368220575225981	0.145058410588573	19.6037524800266	None	50.2320164592125	3.16777266470423e-13	FALSE
BL	Right	Canonical	Right	100.77777777777777	8.722222222222221	1	8.666666666666666	0	7.277777777777778	0.1111111111111111	2	1.9437667038388706	0.05555555555555555	1	0.0518482505759581	0.652169376061504	19.3035187838488	message= , call= bobyqa(par = par, fn = ufn, lower = lower, upper = upper, control = mcontrol,     ...)	49.9065941203163	3.24728351869104e-13	FALSE
BL	Right	Inverted	Right	111.22222222222223	9.444444444444445	1	9.555555555555555	1	8.666666666666666	0.6111111111111112	2	2.2641276821652556	-0.1111111111111111	0.936508278653249	0.440659732047546	0.155851817369529	17.7896549973198	message= , call= log(likelihood + 1e-08)	50.1579085028829	5.71110969386325e-14	FALSE
BM	Both	Canonical	Left	115.16666666666667	7.972222222222222	2	8.26388888888889	0	7.930555555555555	0.19444444444444445	1.4027777777777777	4.446256673906141	-0.2916666666666667	0.520942290261567	0.139260860661664	0.442242700028537	170.49837479159	message= , call= bobyqa(par = par, fn = ufn, lower = lower, upper = upper, control = mcontrol,     ...)	212.388041722837	4.74407267102232e-18	FALSE
BM	Both	Canonical	Right	115.16666666666667	7.777777777777778	2	8.26388888888889	0	7.305555555555555	0.2361111111111111	1.4027777777777777	4.883453102277094	-0.4861111111111111	0.489445381395454	0.164932771956308	0.590587129213748	176.236765182127	None	208.497118168187	6.35151732150677e-14	FALSE
BM	Both	Inverted	Left	112.66666666666667	9.055555555555555	2	8.25	1	7.847222222222222	0.2916666666666667	1.5555555555555556	6.090908054831541	0.8055555555555556	0.147834590805728	0.100293602933461	0.506661835720452	209.395737316236	message= , call= bobyqa(par = par, fn = ufn, lower = lower, upper = upper, control = mcontrol,     ...)	213.640278219717	0.0369146934406665	FALSE
BM	Both	Inverted	Right	112.66666666666667	7.986111111111111	2	8.25	1	8.680555555555555	0.375	1.5555555555555556	5.744955967720873	-0.2638888888888889	0.445931346978292	0.532064727730183	0.706398713995052	186.912683464507	message= , call= bobyqa(par = par, fn = ufn, lower = lower, upper = upper, control = mcontrol,     ...)	210.939445844694	2.07435705499729e-10	FALSE
BM	Left	Canonical	Left	94.22222222222223	9.222222222222221	1	8.722222222222221	0	8.055555555555555	0.16666666666666666	1	2.329188374053855	0.5	0.759985957154752	-0.135668233557242	0.813571218605353	35.3159844552885	None	50.0889156451103	1.71950046507648e-6	FALSE
BM	Left	Inverted	Left	94.88888888888889	8.722222222222221	1	8.166666666666666	1	9.11111111111111	0.6666666666666666	1	2.3921189008898285	0.5555555555555556	0.619047772994609	0.499999988182066	0.15984086079725	37.7012247427919	None	51.9984575659949	2.72478973774247e-6	FALSE
BM	Right	Canonical	Right	98.77777777777777	7.166666666666667	1	7.111111111111111	0	7.555555555555555	0.2222222222222222	2	2.7256351734427477	0.05555555555555555	0.51941406939151	-2.04545247288418e-6	0.483295062107865	41.2998551154353	message= , call= bobyqa(par = par, fn = ufn, lower = lower, upper = upper, control = mcontrol,     ...)	51.2201528759517	1.83155373538036e-4	FALSE
BM	Right	Inverted	Right	102.77777777777777	8.88888888888889	1	8.666666666666666	1	8.5	0.3333333333333333	2	2.790940737550651	0.2222222222222222	0.394187605492726	0.695653089202529	0.503905115311784	47.8205199319693	message= , call= bobyqa(par = par, fn = ufn, lower = lower, upper = upper, control = mcontrol,     ...)	53.753848913338	0.00785417566220099	FALSE
BN	Both	Canonical	Left	105.08333333333333	7.986111111111111	2	7.972222222222222	0	6.916666666666667	0.2638888888888889	1.5416666666666667	4.017997452804492	0.013888888888888888	0.881414859129068	-0.0497854560569622	0.54785220203552	101.385571763664	None	200.764937808584	7.82278977965286e-43	FALSE
BN	Both	Canonical	Right	105.08333333333333	8.180555555555555	2	7.972222222222222	0	9.61111111111111	0.6111111111111112	1.5416666666666667	4.162200601457395	0.20833333333333334	0.500110981898627	-0.0135910208679762	0.659420383347219	177.175899101903	None	208.03914221542	2.51369129077358e-13	FALSE
BN	Both	Inverted	Left	106.76388888888889	8.5	2	8.333333333333334	1	7.902777777777778	0.7916666666666666	1.4305555555555556	4.036949817084759	0.16666666666666666	0.880292621341579	0.174223823395802	0.486504235290788	98.1117353226368	None	201.16737069878	2.01645772875467e-44	FALSE
BN	Both	Inverted	Right	106.76388888888889	8.722222222222221	2	8.333333333333334	1	9.347222222222221	0.5694444444444444	1.4305555555555556	4.200049455265091	0.3888888888888889	0.437047354250397	-0.0149430330612951	0.81590524964189	189.70135742919	message= , call= bobyqa(par = par, fn = ufn, lower = lower, upper = upper, control = mcontrol,     ...)	210.554598084883	4.63080579946964e-9	FALSE
BN	Left	Canonical	Left	103.5	8.722222222222221	1	8.5	0	8.88888888888889	0.2222222222222222	1	2.624531524718299	0.2222222222222222	1	0.487741537312029	0.0160303083689241	9.53471122312457	message= , call= bobyqa(par = par, fn = ufn, lower = lower, upper = upper, control = mcontrol,     ...)	49.9065941203163	2.12564500862406e-17	FALSE
BN	Left	Inverted	Left	113.61111111111111	8.5	1	8	1	8.277777777777779	0.8888888888888888	1	3.0514677798314045	0.5	0.936508067083006	0.366909439053818	0.141656172960283	14.5408893396817	message= , call= log(likelihood + 1e-08)	50.0243771359727	2.64960135781956e-15	FALSE
BN	Right	Canonical	Right	118.77777777777777	7.555555555555555	1	7.944444444444445	0	8.555555555555555	0.3888888888888889	2	3.4196883303294374	-0.3888888888888889	0.74603213278646	0.384227863662728	0.138807960784676	30.7786695297654	None	53.3202124619781	8.88404136558552e-10	FALSE
BN	Right	Inverted	Right	118.72222222222223	7.166666666666667	1	8.666666666666666	1	8.666666666666666	0.9444444444444444	2	2.2536020163873522	-1.5	0.589749308523406	-5.18700995395265e-8	0.305287688278389	35.1828519166633	message= , call= bobyqa(par = par, fn = ufn, lower = lower, upper = upper, control = mcontrol,     ...)	51.4494804490345	4.03997613802231e-7	FALSE
